 I_abs(s)[cm^-1]/c[mg/ml]
       0.00000          0.146399E-01
      0.500000E-02      0.145724E-01
      0.100000E-01      0.143718E-01
      0.150000E-01      0.140435E-01
      0.200000E-01      0.135964E-01
      0.250000E-01      0.130425E-01
      0.300000E-01      0.123961E-01
      0.350000E-01      0.116736E-01
      0.400000E-01      0.108926E-01
      0.450000E-01      0.100710E-01
      0.500000E-01      0.922692E-02
      0.550000E-01      0.837757E-02
      0.600000E-01      0.753887E-02
      0.650000E-01      0.672498E-02
      0.700000E-01      0.594798E-02
      0.750000E-01      0.521763E-02
      0.800000E-01      0.454128E-02
      0.850000E-01      0.392390E-02
      0.900000E-01      0.336817E-02
      0.950000E-01      0.287477E-02
      0.100000          0.244255E-02
      0.105000          0.206893E-02
      0.110000          0.175019E-02
      0.115000          0.148182E-02
      0.120000          0.125879E-02
      0.125000          0.107590E-02
      0.130000          0.927939E-03
      0.135000          0.809908E-03
      0.140000          0.717142E-03
      0.145000          0.645394E-03
      0.150000          0.590880E-03
      0.155000          0.550286E-03
      0.160000          0.520749E-03
      0.165000          0.499823E-03
      0.170000          0.485431E-03
      0.175000          0.475820E-03
      0.180000          0.469511E-03
      0.185000          0.465268E-03
      0.190000          0.462058E-03
      0.195000          0.459036E-03
      0.200000          0.455523E-03
      0.205000          0.451004E-03
      0.210000          0.445112E-03
      0.215000          0.437630E-03
      0.220000          0.428477E-03
      0.225000          0.417700E-03
      0.230000          0.405459E-03
      0.235000          0.392003E-03
      0.240000          0.377654E-03
      0.245000          0.362775E-03
      0.250000          0.347745E-03
      0.255000          0.332934E-03
      0.260000          0.318677E-03
      0.265000          0.305256E-03
      0.270000          0.292886E-03
      0.275000          0.281702E-03
      0.280000          0.271764E-03
      0.285000          0.263052E-03
      0.290000          0.255482E-03
      0.295000          0.248913E-03
      0.300000          0.243168E-03
      0.305000          0.238046E-03
      0.310000          0.233342E-03
      0.315000          0.228858E-03
      0.320000          0.224422E-03
      0.325000          0.219894E-03
      0.330000          0.215171E-03
      0.335000          0.210193E-03
      0.340000          0.204940E-03
      0.345000          0.199428E-03
      0.350000          0.193703E-03
      0.355000          0.187836E-03
      0.360000          0.181910E-03
      0.365000          0.176015E-03
      0.370000          0.170240E-03
      0.375000          0.164665E-03
      0.380000          0.159357E-03
      0.385000          0.154367E-03
      0.390000          0.149728E-03
      0.395000          0.145454E-03
      0.400000          0.141543E-03
      0.405000          0.137979E-03
      0.410000          0.134735E-03
      0.415000          0.131777E-03
      0.420000          0.129064E-03
      0.425000          0.126557E-03
      0.430000          0.124218E-03
      0.435000          0.122011E-03
      0.440000          0.119907E-03
      0.445000          0.117883E-03
      0.450000          0.115919E-03
      0.455000          0.114004E-03
      0.460000          0.112131E-03
      0.465000          0.110297E-03
      0.470000          0.108502E-03
      0.475000          0.106749E-03
      0.480000          0.105040E-03
      0.485000          0.103382E-03
      0.490000          0.101779E-03
      0.495000          0.100234E-03
      0.500000          0.987515E-04
