 I_abs(s)[cm^-1]/c[mg/ml]
       0.00000          0.143785E-01
      0.500000E-02      0.142212E-01
      0.100000E-01      0.137603E-01
      0.150000E-01      0.130278E-01
      0.200000E-01      0.120730E-01
      0.250000E-01      0.109568E-01
      0.300000E-01      0.974525E-02
      0.350000E-01      0.850323E-02
      0.400000E-01      0.728861E-02
      0.450000E-01      0.614822E-02
      0.500000E-01      0.511555E-02
      0.550000E-01      0.421044E-02
      0.600000E-01      0.344022E-02
      0.650000E-01      0.280211E-02
      0.700000E-01      0.228603E-02
      0.750000E-01      0.187751E-02
      0.800000E-01      0.156019E-02
      0.850000E-01      0.131769E-02
      0.900000E-01      0.113484E-02
      0.950000E-01      0.998296E-03
      0.100000          0.896750E-03
      0.105000          0.820898E-03
      0.110000          0.763280E-03
      0.115000          0.718111E-03
      0.120000          0.681126E-03
      0.125000          0.649407E-03
      0.130000          0.621190E-03
      0.135000          0.595613E-03
      0.140000          0.572422E-03
      0.145000          0.551662E-03
      0.150000          0.533400E-03
      0.155000          0.517529E-03
      0.160000          0.503681E-03
      0.165000          0.491249E-03
      0.170000          0.479504E-03
      0.175000          0.467744E-03
      0.180000          0.455447E-03
      0.185000          0.442361E-03
      0.190000          0.428534E-03
      0.195000          0.414257E-03
      0.200000          0.399967E-03
      0.205000          0.386120E-03
      0.210000          0.373088E-03
      0.215000          0.361093E-03
      0.220000          0.350189E-03
      0.225000          0.340293E-03
      0.230000          0.331243E-03
      0.235000          0.322861E-03
      0.240000          0.315003E-03
      0.245000          0.307580E-03
      0.250000          0.300556E-03
      0.255000          0.293920E-03
      0.260000          0.287655E-03
      0.265000          0.281707E-03
      0.270000          0.275971E-03
      0.275000          0.270295E-03
      0.280000          0.264503E-03
      0.285000          0.258422E-03
      0.290000          0.251917E-03
      0.295000          0.244919E-03
      0.300000          0.237436E-03
      0.305000          0.229560E-03
      0.310000          0.221455E-03
      0.315000          0.213339E-03
      0.320000          0.205459E-03
      0.325000          0.198065E-03
      0.330000          0.191382E-03
      0.335000          0.185588E-03
      0.340000          0.180792E-03
      0.345000          0.177026E-03
      0.350000          0.174238E-03
      0.355000          0.172297E-03
      0.360000          0.171011E-03
      0.365000          0.170146E-03
      0.370000          0.169450E-03
      0.375000          0.168688E-03
      0.380000          0.167657E-03
      0.385000          0.166210E-03
      0.390000          0.164260E-03
      0.395000          0.161783E-03
      0.400000          0.158809E-03
      0.405000          0.155410E-03
      0.410000          0.151689E-03
      0.415000          0.147759E-03
      0.420000          0.143739E-03
      0.425000          0.139737E-03
      0.430000          0.135845E-03
      0.435000          0.132134E-03
      0.440000          0.128644E-03
      0.445000          0.125389E-03
      0.450000          0.122349E-03
      0.455000          0.119480E-03
      0.460000          0.116718E-03
      0.465000          0.113994E-03
      0.470000          0.111241E-03
      0.475000          0.108411E-03
      0.480000          0.105482E-03
      0.485000          0.102463E-03
      0.490000          0.993933E-04
      0.495000          0.963310E-04
      0.500000          0.933467E-04
