 I_abs(s)[cm^-1]/c[mg/ml]
       0.00000          0.140570E-01
      0.500000E-02      0.139760E-01
      0.100000E-01      0.137358E-01
      0.150000E-01      0.133459E-01
      0.200000E-01      0.128211E-01
      0.250000E-01      0.121806E-01
      0.300000E-01      0.114473E-01
      0.350000E-01      0.106457E-01
      0.400000E-01      0.980134E-02
      0.450000E-01      0.893858E-02
      0.500000E-01      0.808006E-02
      0.550000E-01      0.724544E-02
      0.600000E-01      0.645086E-02
      0.650000E-01      0.570853E-02
      0.700000E-01      0.502671E-02
      0.750000E-01      0.440994E-02
      0.800000E-01      0.385943E-02
      0.850000E-01      0.337368E-02
      0.900000E-01      0.294911E-02
      0.950000E-01      0.258071E-02
      0.100000          0.226270E-02
      0.105000          0.198900E-02
      0.110000          0.175371E-02
      0.115000          0.155134E-02
      0.120000          0.137704E-02
      0.125000          0.122665E-02
      0.130000          0.109669E-02
      0.135000          0.984301E-03
      0.140000          0.887175E-03
      0.145000          0.803412E-03
      0.150000          0.731449E-03
      0.155000          0.669963E-03
      0.160000          0.617800E-03
      0.165000          0.573927E-03
      0.170000          0.537395E-03
      0.175000          0.507311E-03
      0.180000          0.482821E-03
      0.185000          0.463098E-03
      0.190000          0.447338E-03
      0.195000          0.434751E-03
      0.200000          0.424568E-03
      0.205000          0.416046E-03
      0.210000          0.408481E-03
      0.215000          0.401234E-03
      0.220000          0.393743E-03
      0.225000          0.385556E-03
      0.230000          0.376347E-03
      0.235000          0.365929E-03
      0.240000          0.354261E-03
      0.245000          0.341441E-03
      0.250000          0.327689E-03
      0.255000          0.313317E-03
      0.260000          0.298698E-03
      0.265000          0.284223E-03
      0.270000          0.270267E-03
      0.275000          0.257156E-03
      0.280000          0.245138E-03
      0.285000          0.234376E-03
      0.290000          0.224934E-03
      0.295000          0.216793E-03
      0.300000          0.209862E-03
      0.305000          0.203996E-03
      0.310000          0.199021E-03
      0.315000          0.194756E-03
      0.320000          0.191030E-03
      0.325000          0.187695E-03
      0.330000          0.184634E-03
      0.335000          0.181765E-03
      0.340000          0.179033E-03
      0.345000          0.176409E-03
      0.350000          0.173880E-03
      0.355000          0.171440E-03
      0.360000          0.169089E-03
      0.365000          0.166824E-03
      0.370000          0.164637E-03
      0.375000          0.162519E-03
      0.380000          0.160460E-03
      0.385000          0.158448E-03
      0.390000          0.156476E-03
      0.395000          0.154538E-03
      0.400000          0.152634E-03
      0.405000          0.150762E-03
      0.410000          0.148922E-03
      0.415000          0.147110E-03
      0.420000          0.145315E-03
      0.425000          0.143519E-03
      0.430000          0.141693E-03
      0.435000          0.139805E-03
      0.440000          0.137814E-03
      0.445000          0.135682E-03
      0.450000          0.133374E-03
      0.455000          0.130863E-03
      0.460000          0.128137E-03
      0.465000          0.125199E-03
      0.470000          0.122071E-03
      0.475000          0.118792E-03
      0.480000          0.115417E-03
      0.485000          0.112010E-03
      0.490000          0.108642E-03
      0.495000          0.105383E-03
      0.500000          0.102297E-03
