 I_abs(s)[cm^-1]/c[mg/ml]
       0.00000          0.143628E-01
      0.500000E-02      0.142771E-01
      0.100000E-01      0.140233E-01
      0.150000E-01      0.136104E-01
      0.200000E-01      0.130529E-01
      0.250000E-01      0.123700E-01
      0.300000E-01      0.115846E-01
      0.350000E-01      0.107224E-01
      0.400000E-01      0.980984E-02
      0.450000E-01      0.887372E-02
      0.500000E-01      0.793940E-02
      0.550000E-01      0.702995E-02
      0.600000E-01      0.616523E-02
      0.650000E-01      0.536123E-02
      0.700000E-01      0.462975E-02
      0.750000E-01      0.397822E-02
      0.800000E-01      0.340991E-02
      0.850000E-01      0.292427E-02
      0.900000E-01      0.251751E-02
      0.950000E-01      0.218319E-02
      0.100000          0.191308E-02
      0.105000          0.169781E-02
      0.110000          0.152762E-02
      0.115000          0.139302E-02
      0.120000          0.128524E-02
      0.125000          0.119665E-02
      0.130000          0.112099E-02
      0.135000          0.105347E-02
      0.140000          0.990701E-03
      0.145000          0.930634E-03
      0.150000          0.872299E-03
      0.155000          0.815585E-03
      0.160000          0.760961E-03
      0.165000          0.709229E-03
      0.170000          0.661288E-03
      0.175000          0.617952E-03
      0.180000          0.579821E-03
      0.185000          0.547201E-03
      0.190000          0.520076E-03
      0.195000          0.498130E-03
      0.200000          0.480789E-03
      0.205000          0.467301E-03
      0.210000          0.456810E-03
      0.215000          0.448437E-03
      0.220000          0.441353E-03
      0.225000          0.434829E-03
      0.230000          0.428277E-03
      0.235000          0.421266E-03
      0.240000          0.413519E-03
      0.245000          0.404902E-03
      0.250000          0.395401E-03
      0.255000          0.385092E-03
      0.260000          0.374107E-03
      0.265000          0.362615E-03
      0.270000          0.350788E-03
      0.275000          0.338796E-03
      0.280000          0.326786E-03
      0.285000          0.314884E-03
      0.290000          0.303193E-03
      0.295000          0.291794E-03
      0.300000          0.280752E-03
      0.305000          0.270119E-03
      0.310000          0.259938E-03
      0.315000          0.250241E-03
      0.320000          0.241053E-03
      0.325000          0.232386E-03
      0.330000          0.224238E-03
      0.335000          0.216595E-03
      0.340000          0.209422E-03
      0.345000          0.202671E-03
      0.350000          0.196283E-03
      0.355000          0.190186E-03
      0.360000          0.184311E-03
      0.365000          0.178591E-03
      0.370000          0.172972E-03
      0.375000          0.167419E-03
      0.380000          0.161920E-03
      0.385000          0.156490E-03
      0.390000          0.151168E-03
      0.395000          0.146017E-03
      0.400000          0.141114E-03
      0.405000          0.136547E-03
      0.410000          0.132403E-03
      0.415000          0.128758E-03
      0.420000          0.125672E-03
      0.425000          0.123177E-03
      0.430000          0.121276E-03
      0.435000          0.119938E-03
      0.440000          0.119100E-03
      0.445000          0.118669E-03
      0.450000          0.118530E-03
      0.455000          0.118554E-03
      0.460000          0.118604E-03
      0.465000          0.118548E-03
      0.470000          0.118266E-03
      0.475000          0.117657E-03
      0.480000          0.116647E-03
      0.485000          0.115193E-03
      0.490000          0.113280E-03
      0.495000          0.110926E-03
      0.500000          0.108176E-03
