 I_abs(s)[cm^-1]/c[mg/ml]
       0.00000          0.146798E-01
      0.500000E-02      0.146275E-01
      0.100000E-01      0.144720E-01
      0.150000E-01      0.142164E-01
      0.200000E-01      0.138658E-01
      0.250000E-01      0.134273E-01
      0.300000E-01      0.129097E-01
      0.350000E-01      0.123229E-01
      0.400000E-01      0.116780E-01
      0.450000E-01      0.109866E-01
      0.500000E-01      0.102611E-01
      0.550000E-01      0.951338E-02
      0.600000E-01      0.875540E-02
      0.650000E-01      0.799840E-02
      0.700000E-01      0.725278E-02
      0.750000E-01      0.652791E-02
      0.800000E-01      0.583195E-02
      0.850000E-01      0.517175E-02
      0.900000E-01      0.455278E-02
      0.950000E-01      0.397912E-02
      0.100000          0.345354E-02
      0.105000          0.297752E-02
      0.110000          0.255139E-02
      0.115000          0.217445E-02
      0.120000          0.184512E-02
      0.125000          0.156109E-02
      0.130000          0.131948E-02
      0.135000          0.111699E-02
      0.140000          0.950033E-03
      0.145000          0.814874E-03
      0.150000          0.707739E-03
      0.155000          0.624905E-03
      0.160000          0.562783E-03
      0.165000          0.517977E-03
      0.170000          0.487324E-03
      0.175000          0.467931E-03
      0.180000          0.457191E-03
      0.185000          0.452790E-03
      0.190000          0.452709E-03
      0.195000          0.455219E-03
      0.200000          0.458869E-03
      0.205000          0.462470E-03
      0.210000          0.465084E-03
      0.215000          0.466002E-03
      0.220000          0.464721E-03
      0.225000          0.460931E-03
      0.230000          0.454486E-03
      0.235000          0.445388E-03
      0.240000          0.433758E-03
      0.245000          0.419820E-03
      0.250000          0.403873E-03
      0.255000          0.386272E-03
      0.260000          0.367407E-03
      0.265000          0.347682E-03
      0.270000          0.327500E-03
      0.275000          0.307244E-03
      0.280000          0.287267E-03
      0.285000          0.267882E-03
      0.290000          0.249353E-03
      0.295000          0.231893E-03
      0.300000          0.215663E-03
      0.305000          0.200770E-03
      0.310000          0.187276E-03
      0.315000          0.175197E-03
      0.320000          0.164515E-03
      0.325000          0.155181E-03
      0.330000          0.147121E-03
      0.335000          0.140250E-03
      0.340000          0.134470E-03
      0.345000          0.129679E-03
      0.350000          0.125777E-03
      0.355000          0.122666E-03
      0.360000          0.120253E-03
      0.365000          0.118451E-03
      0.370000          0.117180E-03
      0.375000          0.116367E-03
      0.380000          0.115941E-03
      0.385000          0.115835E-03
      0.390000          0.115988E-03
      0.395000          0.116337E-03
      0.400000          0.116821E-03
      0.405000          0.117382E-03
      0.410000          0.117960E-03
      0.415000          0.118500E-03
      0.420000          0.118950E-03
      0.425000          0.119262E-03
      0.430000          0.119392E-03
      0.435000          0.119307E-03
      0.440000          0.118980E-03
      0.445000          0.118394E-03
      0.450000          0.117542E-03
      0.455000          0.116427E-03
      0.460000          0.115062E-03
      0.465000          0.113468E-03
      0.470000          0.111674E-03
      0.475000          0.109714E-03
      0.480000          0.107626E-03
      0.485000          0.105452E-03
      0.490000          0.103231E-03
      0.495000          0.101004E-03
      0.500000          0.988063E-04
