 I_abs(s)[cm^-1]/c[mg/ml]
       0.00000          0.140493E-01
      0.500000E-02      0.139611E-01
      0.100000E-01      0.137004E-01
      0.150000E-01      0.132775E-01
      0.200000E-01      0.127091E-01
      0.250000E-01      0.120169E-01
      0.300000E-01      0.112267E-01
      0.350000E-01      0.103661E-01
      0.400000E-01      0.946364E-02
      0.450000E-01      0.854666E-02
      0.500000E-01      0.764031E-02
      0.550000E-01      0.676631E-02
      0.600000E-01      0.594219E-02
      0.650000E-01      0.518094E-02
      0.700000E-01      0.449089E-02
      0.750000E-01      0.387604E-02
      0.800000E-01      0.333658E-02
      0.850000E-01      0.286957E-02
      0.900000E-01      0.246978E-02
      0.950000E-01      0.213048E-02
      0.100000          0.184423E-02
      0.105000          0.160351E-02
      0.110000          0.140122E-02
      0.115000          0.123105E-02
      0.120000          0.108760E-02
      0.125000          0.966496E-03
      0.130000          0.864252E-03
      0.135000          0.778160E-03
      0.140000          0.706105E-03
      0.145000          0.646381E-03
      0.150000          0.597530E-03
      0.155000          0.558223E-03
      0.160000          0.527182E-03
      0.165000          0.503150E-03
      0.170000          0.484892E-03
      0.175000          0.471229E-03
      0.180000          0.461073E-03
      0.185000          0.453470E-03
      0.190000          0.447622E-03
      0.195000          0.442905E-03
      0.200000          0.438854E-03
      0.205000          0.435150E-03
      0.210000          0.431578E-03
      0.215000          0.427994E-03
      0.220000          0.424286E-03
      0.225000          0.420346E-03
      0.230000          0.416054E-03
      0.235000          0.411267E-03
      0.240000          0.405832E-03
      0.245000          0.399592E-03
      0.250000          0.392413E-03
      0.255000          0.384198E-03
      0.260000          0.374907E-03
      0.265000          0.364562E-03
      0.270000          0.353256E-03
      0.275000          0.341140E-03
      0.280000          0.328410E-03
      0.285000          0.315292E-03
      0.290000          0.302018E-03
      0.295000          0.288810E-03
      0.300000          0.275857E-03
      0.305000          0.263313E-03
      0.310000          0.251284E-03
      0.315000          0.239834E-03
      0.320000          0.228987E-03
      0.325000          0.218741E-03
      0.330000          0.209075E-03
      0.335000          0.199964E-03
      0.340000          0.191383E-03
      0.345000          0.183318E-03
      0.350000          0.175767E-03
      0.355000          0.168739E-03
      0.360000          0.162251E-03
      0.365000          0.156323E-03
      0.370000          0.150970E-03
      0.375000          0.146197E-03
      0.380000          0.141998E-03
      0.385000          0.138346E-03
      0.390000          0.135199E-03
      0.395000          0.132498E-03
      0.400000          0.130173E-03
      0.405000          0.128149E-03
      0.410000          0.126347E-03
      0.415000          0.124699E-03
      0.420000          0.123143E-03
      0.425000          0.121635E-03
      0.430000          0.120149E-03
      0.435000          0.118673E-03
      0.440000          0.117213E-03
      0.445000          0.115788E-03
      0.450000          0.114422E-03
      0.455000          0.113145E-03
      0.460000          0.111982E-03
      0.465000          0.110949E-03
      0.470000          0.110051E-03
      0.475000          0.109282E-03
      0.480000          0.108615E-03
      0.485000          0.108014E-03
      0.490000          0.107429E-03
      0.495000          0.106806E-03
      0.500000          0.106087E-03
