 I_abs(s)[cm^-1]/c[mg/ml]
       0.00000          0.147995E-01
      0.500000E-02      0.147550E-01
      0.100000E-01      0.146224E-01
      0.150000E-01      0.144039E-01
      0.200000E-01      0.141035E-01
      0.250000E-01      0.137262E-01
      0.300000E-01      0.132787E-01
      0.350000E-01      0.127684E-01
      0.400000E-01      0.122036E-01
      0.450000E-01      0.115933E-01
      0.500000E-01      0.109471E-01
      0.550000E-01      0.102743E-01
      0.600000E-01      0.958466E-02
      0.650000E-01      0.888727E-02
      0.700000E-01      0.819094E-02
      0.750000E-01      0.750380E-02
      0.800000E-01      0.683321E-02
      0.850000E-01      0.618560E-02
      0.900000E-01      0.556648E-02
      0.950000E-01      0.498031E-02
      0.100000          0.443054E-02
      0.105000          0.391964E-02
      0.110000          0.344908E-02
      0.115000          0.301948E-02
      0.120000          0.263063E-02
      0.125000          0.228165E-02
      0.130000          0.197105E-02
      0.135000          0.169687E-02
      0.140000          0.145678E-02
      0.145000          0.124820E-02
      0.150000          0.106841E-02
      0.155000          0.914588E-03
      0.160000          0.783959E-03
      0.165000          0.673815E-03
      0.170000          0.581581E-03
      0.175000          0.504852E-03
      0.180000          0.441424E-03
      0.185000          0.389302E-03
      0.190000          0.346714E-03
      0.195000          0.312099E-03
      0.200000          0.284107E-03
      0.205000          0.261579E-03
      0.210000          0.243532E-03
      0.215000          0.229141E-03
      0.220000          0.217717E-03
      0.225000          0.208689E-03
      0.230000          0.201589E-03
      0.235000          0.196029E-03
      0.240000          0.191694E-03
      0.245000          0.188323E-03
      0.250000          0.185706E-03
      0.255000          0.183667E-03
      0.260000          0.182066E-03
      0.265000          0.180787E-03
      0.270000          0.179735E-03
      0.275000          0.178837E-03
      0.280000          0.178031E-03
      0.285000          0.177274E-03
      0.290000          0.176528E-03
      0.295000          0.175770E-03
      0.300000          0.174978E-03
      0.305000          0.174141E-03
      0.310000          0.173248E-03
      0.315000          0.172293E-03
      0.320000          0.171268E-03
      0.325000          0.170169E-03
      0.330000          0.168988E-03
      0.335000          0.167719E-03
      0.340000          0.166353E-03
      0.345000          0.164880E-03
      0.350000          0.163292E-03
      0.355000          0.161580E-03
      0.360000          0.159735E-03
      0.365000          0.157752E-03
      0.370000          0.155627E-03
      0.375000          0.153362E-03
      0.380000          0.150959E-03
      0.385000          0.148427E-03
      0.390000          0.145779E-03
      0.395000          0.143031E-03
      0.400000          0.140205E-03
      0.405000          0.137325E-03
      0.410000          0.134415E-03
      0.415000          0.131505E-03
      0.420000          0.128621E-03
      0.425000          0.125790E-03
      0.430000          0.123037E-03
      0.435000          0.120384E-03
      0.440000          0.117849E-03
      0.445000          0.115445E-03
      0.450000          0.113182E-03
      0.455000          0.111061E-03
      0.460000          0.109083E-03
      0.465000          0.107240E-03
      0.470000          0.105522E-03
      0.475000          0.103916E-03
      0.480000          0.102407E-03
      0.485000          0.100975E-03
      0.490000          0.996053E-04
      0.495000          0.982793E-04
      0.500000          0.969823E-04
