 I_abs(s)[cm^-1]/c[mg/ml]
       0.00000          0.141429E-01
      0.500000E-02      0.140574E-01
      0.100000E-01      0.138039E-01
      0.150000E-01      0.133923E-01
      0.200000E-01      0.128381E-01
      0.250000E-01      0.121617E-01
      0.300000E-01      0.113873E-01
      0.350000E-01      0.105412E-01
      0.400000E-01      0.965093E-02
      0.450000E-01      0.874319E-02
      0.500000E-01      0.784298E-02
      0.550000E-01      0.697236E-02
      0.600000E-01      0.614961E-02
      0.650000E-01      0.538871E-02
      0.700000E-01      0.469918E-02
      0.750000E-01      0.408612E-02
      0.800000E-01      0.355058E-02
      0.850000E-01      0.309013E-02
      0.900000E-01      0.269958E-02
      0.950000E-01      0.237173E-02
      0.100000          0.209821E-02
      0.105000          0.187022E-02
      0.110000          0.167914E-02
      0.115000          0.151710E-02
      0.120000          0.137730E-02
      0.125000          0.125424E-02
      0.130000          0.114377E-02
      0.135000          0.104306E-02
      0.140000          0.950395E-03
      0.145000          0.864996E-03
      0.150000          0.786739E-03
      0.155000          0.715904E-03
      0.160000          0.652930E-03
      0.165000          0.598215E-03
      0.170000          0.551960E-03
      0.175000          0.514078E-03
      0.180000          0.484146E-03
      0.185000          0.461413E-03
      0.190000          0.444847E-03
      0.195000          0.433213E-03
      0.200000          0.425161E-03
      0.205000          0.419329E-03
      0.210000          0.414437E-03
      0.215000          0.409365E-03
      0.220000          0.403216E-03
      0.225000          0.395358E-03
      0.230000          0.385436E-03
      0.235000          0.373365E-03
      0.240000          0.359305E-03
      0.245000          0.343612E-03
      0.250000          0.326790E-03
      0.255000          0.309424E-03
      0.260000          0.292124E-03
      0.265000          0.275467E-03
      0.270000          0.259951E-03
      0.275000          0.245963E-03
      0.280000          0.233754E-03
      0.285000          0.223435E-03
      0.290000          0.214979E-03
      0.295000          0.208244E-03
      0.300000          0.202992E-03
      0.305000          0.198925E-03
      0.310000          0.195714E-03
      0.315000          0.193031E-03
      0.320000          0.190579E-03
      0.325000          0.188108E-03
      0.330000          0.185434E-03
      0.335000          0.182440E-03
      0.340000          0.179081E-03
      0.345000          0.175373E-03
      0.350000          0.171379E-03
      0.355000          0.167200E-03
      0.360000          0.162955E-03
      0.365000          0.158767E-03
      0.370000          0.154748E-03
      0.375000          0.150992E-03
      0.380000          0.147564E-03
      0.385000          0.144502E-03
      0.390000          0.141810E-03
      0.395000          0.139468E-03
      0.400000          0.137432E-03
      0.405000          0.135643E-03
      0.410000          0.134033E-03
      0.415000          0.132531E-03
      0.420000          0.131069E-03
      0.425000          0.129588E-03
      0.430000          0.128039E-03
      0.435000          0.126386E-03
      0.440000          0.124605E-03
      0.445000          0.122687E-03
      0.450000          0.120634E-03
      0.455000          0.118457E-03
      0.460000          0.116175E-03
      0.465000          0.113811E-03
      0.470000          0.111391E-03
      0.475000          0.108944E-03
      0.480000          0.106495E-03
      0.485000          0.104069E-03
      0.490000          0.101689E-03
      0.495000          0.993717E-04
      0.500000          0.971313E-04
