 I_abs(s)[cm^-1]/c[mg/ml]
       0.00000          0.146382E-01
      0.500000E-02      0.145738E-01
      0.100000E-01      0.143821E-01
      0.150000E-01      0.140681E-01
      0.200000E-01      0.136395E-01
      0.250000E-01      0.131071E-01
      0.300000E-01      0.124836E-01
      0.350000E-01      0.117838E-01
      0.400000E-01      0.110238E-01
      0.450000E-01      0.102202E-01
      0.500000E-01      0.939004E-02
      0.550000E-01      0.854969E-02
      0.600000E-01      0.771475E-02
      0.650000E-01      0.689942E-02
      0.700000E-01      0.611618E-02
      0.750000E-01      0.537554E-02
      0.800000E-01      0.468584E-02
      0.850000E-01      0.405318E-02
      0.900000E-01      0.348147E-02
      0.950000E-01      0.297251E-02
      0.100000          0.252617E-02
      0.105000          0.214064E-02
      0.110000          0.181269E-02
      0.115000          0.153798E-02
      0.120000          0.131139E-02
      0.125000          0.112725E-02
      0.130000          0.979724E-03
      0.135000          0.862975E-03
      0.140000          0.771418E-03
      0.145000          0.699884E-03
      0.150000          0.643741E-03
      0.155000          0.598980E-03
      0.160000          0.562251E-03
      0.165000          0.530873E-03
      0.170000          0.502802E-03
      0.175000          0.476580E-03
      0.180000          0.451268E-03
      0.185000          0.426363E-03
      0.190000          0.401710E-03
      0.195000          0.377419E-03
      0.200000          0.353780E-03
      0.205000          0.331188E-03
      0.210000          0.310078E-03
      0.215000          0.290870E-03
      0.220000          0.273931E-03
      0.225000          0.259541E-03
      0.230000          0.247877E-03
      0.235000          0.239004E-03
      0.240000          0.232879E-03
      0.245000          0.229352E-03
      0.250000          0.228189E-03
      0.255000          0.229080E-03
      0.260000          0.231664E-03
      0.265000          0.235551E-03
      0.270000          0.240336E-03
      0.275000          0.245623E-03
      0.280000          0.251036E-03
      0.285000          0.256239E-03
      0.290000          0.260938E-03
      0.295000          0.264893E-03
      0.300000          0.267919E-03
      0.305000          0.269889E-03
      0.310000          0.270727E-03
      0.315000          0.270407E-03
      0.320000          0.268946E-03
      0.325000          0.266397E-03
      0.330000          0.262843E-03
      0.335000          0.258387E-03
      0.340000          0.253146E-03
      0.345000          0.247246E-03
      0.350000          0.240816E-03
      0.355000          0.233980E-03
      0.360000          0.226860E-03
      0.365000          0.219570E-03
      0.370000          0.212213E-03
      0.375000          0.204884E-03
      0.380000          0.197665E-03
      0.385000          0.190629E-03
      0.390000          0.183838E-03
      0.395000          0.177342E-03
      0.400000          0.171183E-03
      0.405000          0.165391E-03
      0.410000          0.159986E-03
      0.415000          0.154979E-03
      0.420000          0.150372E-03
      0.425000          0.146156E-03
      0.430000          0.142317E-03
      0.435000          0.138831E-03
      0.440000          0.135670E-03
      0.445000          0.132799E-03
      0.450000          0.130181E-03
      0.455000          0.127778E-03
      0.460000          0.125548E-03
      0.465000          0.123454E-03
      0.470000          0.121458E-03
      0.475000          0.119527E-03
      0.480000          0.117630E-03
      0.485000          0.115740E-03
      0.490000          0.113838E-03
      0.495000          0.111905E-03
      0.500000          0.109928E-03
