 I_abs(s)[cm^-1]/c[mg/ml]
       0.00000          0.141169E-01
      0.500000E-02      0.140535E-01
      0.100000E-01      0.138647E-01
      0.150000E-01      0.135555E-01
      0.200000E-01      0.131336E-01
      0.250000E-01      0.126095E-01
      0.300000E-01      0.119961E-01
      0.350000E-01      0.113079E-01
      0.400000E-01      0.105608E-01
      0.450000E-01      0.977161E-02
      0.500000E-01      0.895699E-02
      0.550000E-01      0.813338E-02
      0.600000E-01      0.731629E-02
      0.650000E-01      0.651985E-02
      0.700000E-01      0.575650E-02
      0.750000E-01      0.503668E-02
      0.800000E-01      0.436864E-02
      0.850000E-01      0.375840E-02
      0.900000E-01      0.320975E-02
      0.950000E-01      0.272433E-02
      0.100000          0.230185E-02
      0.105000          0.194029E-02
      0.110000          0.163623E-02
      0.115000          0.138510E-02
      0.120000          0.118155E-02
      0.125000          0.101973E-02
      0.130000          0.893622E-03
      0.135000          0.797242E-03
      0.140000          0.724913E-03
      0.145000          0.671410E-03
      0.150000          0.632096E-03
      0.155000          0.602995E-03
      0.160000          0.580825E-03
      0.165000          0.562993E-03
      0.170000          0.547557E-03
      0.175000          0.533155E-03
      0.180000          0.518927E-03
      0.185000          0.504422E-03
      0.190000          0.489499E-03
      0.195000          0.474241E-03
      0.200000          0.458866E-03
      0.205000          0.443658E-03
      0.210000          0.428908E-03
      0.215000          0.414871E-03
      0.220000          0.401739E-03
      0.225000          0.389624E-03
      0.230000          0.378557E-03
      0.235000          0.368493E-03
      0.240000          0.359324E-03
      0.245000          0.350893E-03
      0.250000          0.343019E-03
      0.255000          0.335510E-03
      0.260000          0.328180E-03
      0.265000          0.320867E-03
      0.270000          0.313438E-03
      0.275000          0.305799E-03
      0.280000          0.297892E-03
      0.285000          0.289701E-03
      0.290000          0.281244E-03
      0.295000          0.272565E-03
      0.300000          0.263733E-03
      0.305000          0.254829E-03
      0.310000          0.245941E-03
      0.315000          0.237157E-03
      0.320000          0.228560E-03
      0.325000          0.220223E-03
      0.330000          0.212204E-03
      0.335000          0.204550E-03
      0.340000          0.197291E-03
      0.345000          0.190444E-03
      0.350000          0.184015E-03
      0.355000          0.177998E-03
      0.360000          0.172382E-03
      0.365000          0.167150E-03
      0.370000          0.162283E-03
      0.375000          0.157760E-03
      0.380000          0.153564E-03
      0.385000          0.149677E-03
      0.390000          0.146087E-03
      0.395000          0.142782E-03
      0.400000          0.139755E-03
      0.405000          0.136998E-03
      0.410000          0.134507E-03
      0.415000          0.132274E-03
      0.420000          0.130293E-03
      0.425000          0.128553E-03
      0.430000          0.127040E-03
      0.435000          0.125735E-03
      0.440000          0.124617E-03
      0.445000          0.123658E-03
      0.450000          0.122827E-03
      0.455000          0.122088E-03
      0.460000          0.121403E-03
      0.465000          0.120736E-03
      0.470000          0.120048E-03
      0.475000          0.119304E-03
      0.480000          0.118472E-03
      0.485000          0.117527E-03
      0.490000          0.116449E-03
      0.495000          0.115229E-03
      0.500000          0.113862E-03
