 I_abs(s)[cm^-1]/c[mg/ml]
       0.00000          0.139764E-01
      0.500000E-02      0.138573E-01
      0.100000E-01      0.135060E-01
      0.150000E-01      0.129406E-01
      0.200000E-01      0.121894E-01
      0.250000E-01      0.112889E-01
      0.300000E-01      0.102815E-01
      0.350000E-01      0.921158E-02
      0.400000E-01      0.812336E-02
      0.450000E-01      0.705751E-02
      0.500000E-01      0.604896E-02
      0.550000E-01      0.512521E-02
      0.600000E-01      0.430533E-02
      0.650000E-01      0.359981E-02
      0.700000E-01      0.301102E-02
      0.750000E-01      0.253434E-02
      0.800000E-01      0.215965E-02
      0.850000E-01      0.187307E-02
      0.900000E-01      0.165876E-02
      0.950000E-01      0.150050E-02
      0.100000          0.138306E-02
      0.105000          0.129324E-02
      0.110000          0.122040E-02
      0.115000          0.115675E-02
      0.120000          0.109718E-02
      0.125000          0.103894E-02
      0.130000          0.981082E-03
      0.135000          0.923918E-03
      0.140000          0.868444E-03
      0.145000          0.815868E-03
      0.150000          0.767269E-03
      0.155000          0.723382E-03
      0.160000          0.684516E-03
      0.165000          0.650582E-03
      0.170000          0.621182E-03
      0.175000          0.595740E-03
      0.180000          0.573630E-03
      0.185000          0.554276E-03
      0.190000          0.537219E-03
      0.195000          0.522137E-03
      0.200000          0.508826E-03
      0.205000          0.497157E-03
      0.210000          0.487021E-03
      0.215000          0.478269E-03
      0.220000          0.470683E-03
      0.225000          0.463953E-03
      0.230000          0.457687E-03
      0.235000          0.451442E-03
      0.240000          0.444764E-03
      0.245000          0.437243E-03
      0.250000          0.428558E-03
      0.255000          0.418510E-03
      0.260000          0.407052E-03
      0.265000          0.394279E-03
      0.270000          0.380423E-03
      0.275000          0.365819E-03
      0.280000          0.350862E-03
      0.285000          0.335971E-03
      0.290000          0.321542E-03
      0.295000          0.307911E-03
      0.300000          0.295333E-03
      0.305000          0.283962E-03
      0.310000          0.273850E-03
      0.315000          0.264950E-03
      0.320000          0.257131E-03
      0.325000          0.250203E-03
      0.330000          0.243935E-03
      0.335000          0.238082E-03
      0.340000          0.232414E-03
      0.345000          0.226731E-03
      0.350000          0.220884E-03
      0.355000          0.214788E-03
      0.360000          0.208427E-03
      0.365000          0.201851E-03
      0.370000          0.195175E-03
      0.375000          0.188560E-03
      0.380000          0.182199E-03
      0.385000          0.176295E-03
      0.390000          0.171036E-03
      0.395000          0.166577E-03
      0.400000          0.163021E-03
      0.405000          0.160403E-03
      0.410000          0.158687E-03
      0.415000          0.157768E-03
      0.420000          0.157479E-03
      0.425000          0.157606E-03
      0.430000          0.157911E-03
      0.435000          0.158151E-03
      0.440000          0.158103E-03
      0.445000          0.157584E-03
      0.450000          0.156463E-03
      0.455000          0.154669E-03
      0.460000          0.152199E-03
      0.465000          0.149103E-03
      0.470000          0.145484E-03
      0.475000          0.141475E-03
      0.480000          0.137225E-03
      0.485000          0.132887E-03
      0.490000          0.128596E-03
      0.495000          0.124465E-03
      0.500000          0.120572E-03
