 I_abs(s)[cm^-1]/c[mg/ml]
       0.00000          0.137283E-01
      0.500000E-02      0.136439E-01
      0.100000E-01      0.133937E-01
      0.150000E-01      0.129865E-01
      0.200000E-01      0.124367E-01
      0.250000E-01      0.117630E-01
      0.300000E-01      0.109880E-01
      0.350000E-01      0.101365E-01
      0.400000E-01      0.923458E-02
      0.450000E-01      0.830825E-02
      0.500000E-01      0.738230E-02
      0.550000E-01      0.647934E-02
      0.600000E-01      0.561895E-02
      0.650000E-01      0.481713E-02
      0.700000E-01      0.408597E-02
      0.750000E-01      0.343361E-02
      0.800000E-01      0.286434E-02
      0.850000E-01      0.237891E-02
      0.900000E-01      0.197507E-02
      0.950000E-01      0.164801E-02
      0.100000          0.139105E-02
      0.105000          0.119620E-02
      0.110000          0.105467E-02
      0.115000          0.957472E-03
      0.120000          0.895727E-03
      0.125000          0.861070E-03
      0.130000          0.845865E-03
      0.135000          0.843374E-03
      0.140000          0.847854E-03
      0.145000          0.854591E-03
      0.150000          0.859892E-03
      0.155000          0.861036E-03
      0.160000          0.856205E-03
      0.165000          0.844393E-03
      0.170000          0.825302E-03
      0.175000          0.799229E-03
      0.180000          0.766947E-03
      0.185000          0.729584E-03
      0.190000          0.688503E-03
      0.195000          0.645186E-03
      0.200000          0.601125E-03
      0.205000          0.557729E-03
      0.210000          0.516243E-03
      0.215000          0.477689E-03
      0.220000          0.442833E-03
      0.225000          0.412161E-03
      0.230000          0.385890E-03
      0.235000          0.363991E-03
      0.240000          0.346222E-03
      0.245000          0.332181E-03
      0.250000          0.321354E-03
      0.255000          0.313168E-03
      0.260000          0.307039E-03
      0.265000          0.302409E-03
      0.270000          0.298780E-03
      0.275000          0.295728E-03
      0.280000          0.292918E-03
      0.285000          0.290095E-03
      0.290000          0.287086E-03
      0.295000          0.283784E-03
      0.300000          0.280132E-03
      0.305000          0.276115E-03
      0.310000          0.271741E-03
      0.315000          0.267035E-03
      0.320000          0.262029E-03
      0.325000          0.256758E-03
      0.330000          0.251257E-03
      0.335000          0.245562E-03
      0.340000          0.239709E-03
      0.345000          0.233731E-03
      0.350000          0.227665E-03
      0.355000          0.221548E-03
      0.360000          0.215416E-03
      0.365000          0.209302E-03
      0.370000          0.203239E-03
      0.375000          0.197254E-03
      0.380000          0.191369E-03
      0.385000          0.185600E-03
      0.390000          0.179956E-03
      0.395000          0.174441E-03
      0.400000          0.169057E-03
      0.405000          0.163801E-03
      0.410000          0.158666E-03
      0.415000          0.153650E-03
      0.420000          0.148749E-03
      0.425000          0.143960E-03
      0.430000          0.139285E-03
      0.435000          0.134728E-03
      0.440000          0.130294E-03
      0.445000          0.125990E-03
      0.450000          0.121826E-03
      0.455000          0.117812E-03
      0.460000          0.113959E-03
      0.465000          0.110275E-03
      0.470000          0.106771E-03
      0.475000          0.103457E-03
      0.480000          0.100338E-03
      0.485000          0.974225E-04
      0.490000          0.947138E-04
      0.495000          0.922148E-04
      0.500000          0.899257E-04
