 I_abs(s)[cm^-1]/c[mg/ml]
       0.00000          0.133299E-01
      0.500000E-02      0.132190E-01
      0.100000E-01      0.128925E-01
      0.150000E-01      0.123680E-01
      0.200000E-01      0.116734E-01
      0.250000E-01      0.108445E-01
      0.300000E-01      0.992163E-02
      0.350000E-01      0.894694E-02
      0.400000E-01      0.796112E-02
      0.450000E-01      0.700063E-02
      0.500000E-01      0.609564E-02
      0.550000E-01      0.526864E-02
      0.600000E-01      0.453395E-02
      0.650000E-01      0.389797E-02
      0.700000E-01      0.336015E-02
      0.750000E-01      0.291432E-02
      0.800000E-01      0.255045E-02
      0.850000E-01      0.225625E-02
      0.900000E-01      0.201883E-02
      0.950000E-01      0.182590E-02
      0.100000          0.166670E-02
      0.105000          0.153250E-02
      0.110000          0.141676E-02
      0.115000          0.131494E-02
      0.120000          0.122421E-02
      0.125000          0.114297E-02
      0.130000          0.107038E-02
      0.135000          0.100597E-02
      0.140000          0.949339E-03
      0.145000          0.899939E-03
      0.150000          0.857023E-03
      0.155000          0.819642E-03
      0.160000          0.786711E-03
      0.165000          0.757104E-03
      0.170000          0.729750E-03
      0.175000          0.703711E-03
      0.180000          0.678227E-03
      0.185000          0.652739E-03
      0.190000          0.626883E-03
      0.195000          0.600471E-03
      0.200000          0.573454E-03
      0.205000          0.545900E-03
      0.210000          0.517956E-03
      0.215000          0.489830E-03
      0.220000          0.461768E-03
      0.225000          0.434045E-03
      0.230000          0.406947E-03
      0.235000          0.380763E-03
      0.240000          0.355770E-03
      0.245000          0.332228E-03
      0.250000          0.310367E-03
      0.255000          0.290381E-03
      0.260000          0.272420E-03
      0.265000          0.256585E-03
      0.270000          0.242929E-03
      0.275000          0.231446E-03
      0.280000          0.222074E-03
      0.285000          0.214691E-03
      0.290000          0.209115E-03
      0.295000          0.205107E-03
      0.300000          0.202379E-03
      0.305000          0.200607E-03
      0.310000          0.199449E-03
      0.315000          0.198565E-03
      0.320000          0.197647E-03
      0.325000          0.196439E-03
      0.330000          0.194756E-03
      0.335000          0.192495E-03
      0.340000          0.189636E-03
      0.345000          0.186235E-03
      0.350000          0.182401E-03
      0.355000          0.178279E-03
      0.360000          0.174016E-03
      0.365000          0.169743E-03
      0.370000          0.165554E-03
      0.375000          0.161498E-03
      0.380000          0.157584E-03
      0.385000          0.153786E-03
      0.390000          0.150060E-03
      0.395000          0.146367E-03
      0.400000          0.142687E-03
      0.405000          0.139031E-03
      0.410000          0.135443E-03
      0.415000          0.131998E-03
      0.420000          0.128788E-03
      0.425000          0.125906E-03
      0.430000          0.123424E-03
      0.435000          0.121380E-03
      0.440000          0.119769E-03
      0.445000          0.118535E-03
      0.450000          0.117582E-03
      0.455000          0.116786E-03
      0.460000          0.116010E-03
      0.465000          0.115127E-03
      0.470000          0.114032E-03
      0.475000          0.112661E-03
      0.480000          0.110993E-03
      0.485000          0.109047E-03
      0.490000          0.106880E-03
      0.495000          0.104568E-03
      0.500000          0.102197E-03
