 I_abs(s)[cm^-1]/c[mg/ml]
       0.00000          0.144555E-01
      0.500000E-02      0.143685E-01
      0.100000E-01      0.141106E-01
      0.150000E-01      0.136908E-01
      0.200000E-01      0.131239E-01
      0.250000E-01      0.124291E-01
      0.300000E-01      0.116294E-01
      0.350000E-01      0.107504E-01
      0.400000E-01      0.981881E-02
      0.450000E-01      0.886119E-02
      0.500000E-01      0.790294E-02
      0.550000E-01      0.696707E-02
      0.600000E-01      0.607344E-02
      0.650000E-01      0.523811E-02
      0.700000E-01      0.447306E-02
      0.750000E-01      0.378609E-02
      0.800000E-01      0.318103E-02
      0.850000E-01      0.265808E-02
      0.900000E-01      0.221441E-02
      0.950000E-01      0.184476E-02
      0.100000          0.154216E-02
      0.105000          0.129860E-02
      0.110000          0.110563E-02
      0.115000          0.954952E-03
      0.120000          0.838776E-03
      0.125000          0.750149E-03
      0.130000          0.683098E-03
      0.135000          0.632692E-03
      0.140000          0.594986E-03
      0.145000          0.566918E-03
      0.150000          0.546145E-03
      0.155000          0.530877E-03
      0.160000          0.519711E-03
      0.165000          0.511494E-03
      0.170000          0.505219E-03
      0.175000          0.499959E-03
      0.180000          0.494847E-03
      0.185000          0.489082E-03
      0.190000          0.481962E-03
      0.195000          0.472925E-03
      0.200000          0.461596E-03
      0.205000          0.447814E-03
      0.210000          0.431655E-03
      0.215000          0.413422E-03
      0.220000          0.393618E-03
      0.225000          0.372899E-03
      0.230000          0.352012E-03
      0.235000          0.331725E-03
      0.240000          0.312757E-03
      0.245000          0.295711E-03
      0.250000          0.281032E-03
      0.255000          0.268967E-03
      0.260000          0.259559E-03
      0.265000          0.252649E-03
      0.270000          0.247911E-03
      0.275000          0.244884E-03
      0.280000          0.243025E-03
      0.285000          0.241765E-03
      0.290000          0.240557E-03
      0.295000          0.238923E-03
      0.300000          0.236490E-03
      0.305000          0.233011E-03
      0.310000          0.228375E-03
      0.315000          0.222605E-03
      0.320000          0.215839E-03
      0.325000          0.208310E-03
      0.330000          0.200317E-03
      0.335000          0.192192E-03
      0.340000          0.184268E-03
      0.345000          0.176855E-03
      0.350000          0.170216E-03
      0.355000          0.164550E-03
      0.360000          0.159982E-03
      0.365000          0.156563E-03
      0.370000          0.154273E-03
      0.375000          0.153027E-03
      0.380000          0.152686E-03
      0.385000          0.153073E-03
      0.390000          0.153985E-03
      0.395000          0.155209E-03
      0.400000          0.156534E-03
      0.405000          0.157764E-03
      0.410000          0.158725E-03
      0.415000          0.159275E-03
      0.420000          0.159307E-03
      0.425000          0.158753E-03
      0.430000          0.157586E-03
      0.435000          0.155814E-03
      0.440000          0.153483E-03
      0.445000          0.150667E-03
      0.450000          0.147465E-03
      0.455000          0.143993E-03
      0.460000          0.140372E-03
      0.465000          0.136728E-03
      0.470000          0.133175E-03
      0.475000          0.129812E-03
      0.480000          0.126717E-03
      0.485000          0.123941E-03
      0.490000          0.121506E-03
      0.495000          0.119404E-03
      0.500000          0.117602E-03
