 I_abs(s)[cm^-1]/c[mg/ml]
       0.00000          0.143843E-01
      0.500000E-02      0.143183E-01
      0.100000E-01      0.141220E-01
      0.150000E-01      0.138007E-01
      0.200000E-01      0.133629E-01
      0.250000E-01      0.128199E-01
      0.300000E-01      0.121856E-01
      0.350000E-01      0.114757E-01
      0.400000E-01      0.107073E-01
      0.450000E-01      0.989787E-02
      0.500000E-01      0.906521E-02
      0.550000E-01      0.822633E-02
      0.600000E-01      0.739715E-02
      0.650000E-01      0.659197E-02
      0.700000E-01      0.582313E-02
      0.750000E-01      0.510075E-02
      0.800000E-01      0.443259E-02
      0.850000E-01      0.382401E-02
      0.900000E-01      0.327806E-02
      0.950000E-01      0.279564E-02
      0.100000          0.237574E-02
      0.105000          0.201571E-02
      0.110000          0.171164E-02
      0.115000          0.145862E-02
      0.120000          0.125113E-02
      0.125000          0.108336E-02
      0.130000          0.949430E-03
      0.135000          0.843688E-03
      0.140000          0.760857E-03
      0.145000          0.696185E-03
      0.150000          0.645524E-03
      0.155000          0.605373E-03
      0.160000          0.572875E-03
      0.165000          0.545783E-03
      0.170000          0.522404E-03
      0.175000          0.501525E-03
      0.180000          0.482331E-03
      0.185000          0.464320E-03
      0.190000          0.447228E-03
      0.195000          0.430950E-03
      0.200000          0.415484E-03
      0.205000          0.400881E-03
      0.210000          0.387207E-03
      0.215000          0.374519E-03
      0.220000          0.362849E-03
      0.225000          0.352194E-03
      0.230000          0.342520E-03
      0.235000          0.333765E-03
      0.240000          0.325842E-03
      0.245000          0.318648E-03
      0.250000          0.312073E-03
      0.255000          0.306004E-03
      0.260000          0.300333E-03
      0.265000          0.294959E-03
      0.270000          0.289792E-03
      0.275000          0.284752E-03
      0.280000          0.279772E-03
      0.285000          0.274799E-03
      0.290000          0.269788E-03
      0.295000          0.264707E-03
      0.300000          0.259534E-03
      0.305000          0.254255E-03
      0.310000          0.248867E-03
      0.315000          0.243373E-03
      0.320000          0.237784E-03
      0.325000          0.232119E-03
      0.330000          0.226404E-03
      0.335000          0.220667E-03
      0.340000          0.214944E-03
      0.345000          0.209271E-03
      0.350000          0.203688E-03
      0.355000          0.198234E-03
      0.360000          0.192947E-03
      0.365000          0.187860E-03
      0.370000          0.183005E-03
      0.375000          0.178407E-03
      0.380000          0.174084E-03
      0.385000          0.170046E-03
      0.390000          0.166299E-03
      0.395000          0.162836E-03
      0.400000          0.159648E-03
      0.405000          0.156714E-03
      0.410000          0.154011E-03
      0.415000          0.151509E-03
      0.420000          0.149175E-03
      0.425000          0.146974E-03
      0.430000          0.144871E-03
      0.435000          0.142831E-03
      0.440000          0.140822E-03
      0.445000          0.138817E-03
      0.450000          0.136793E-03
      0.455000          0.134734E-03
      0.460000          0.132629E-03
      0.465000          0.130475E-03
      0.470000          0.128276E-03
      0.475000          0.126040E-03
      0.480000          0.123781E-03
      0.485000          0.121514E-03
      0.490000          0.119260E-03
      0.495000          0.117036E-03
      0.500000          0.114860E-03
