 I_abs(s)[cm^-1]/c[mg/ml]
       0.00000          0.144713E-01
      0.500000E-02      0.143951E-01
      0.100000E-01      0.141690E-01
      0.150000E-01      0.138003E-01
      0.200000E-01      0.133008E-01
      0.250000E-01      0.126862E-01
      0.300000E-01      0.119755E-01
      0.350000E-01      0.111895E-01
      0.400000E-01      0.103504E-01
      0.450000E-01      0.948082E-02
      0.500000E-01      0.860224E-02
      0.550000E-01      0.773475E-02
      0.600000E-01      0.689605E-02
      0.650000E-01      0.610097E-02
      0.700000E-01      0.536112E-02
      0.750000E-01      0.468474E-02
      0.800000E-01      0.407674E-02
      0.850000E-01      0.353892E-02
      0.900000E-01      0.307035E-02
      0.950000E-01      0.266775E-02
      0.100000          0.232611E-02
      0.105000          0.203916E-02
      0.110000          0.179992E-02
      0.115000          0.160121E-02
      0.120000          0.143600E-02
      0.125000          0.129782E-02
      0.130000          0.118093E-02
      0.135000          0.108046E-02
      0.140000          0.992522E-03
      0.145000          0.914114E-03
      0.150000          0.843090E-03
      0.155000          0.778023E-03
      0.160000          0.718067E-03
      0.165000          0.662807E-03
      0.170000          0.612114E-03
      0.175000          0.566025E-03
      0.180000          0.524638E-03
      0.185000          0.488035E-03
      0.190000          0.456231E-03
      0.195000          0.429147E-03
      0.200000          0.406602E-03
      0.205000          0.388319E-03
      0.210000          0.373941E-03
      0.215000          0.363047E-03
      0.220000          0.355176E-03
      0.225000          0.349847E-03
      0.230000          0.346571E-03
      0.235000          0.344866E-03
      0.240000          0.344267E-03
      0.245000          0.344330E-03
      0.250000          0.344641E-03
      0.255000          0.344817E-03
      0.260000          0.344515E-03
      0.265000          0.343435E-03
      0.270000          0.341329E-03
      0.275000          0.338003E-03
      0.280000          0.333326E-03
      0.285000          0.327234E-03
      0.290000          0.319727E-03
      0.295000          0.310872E-03
      0.300000          0.300795E-03
      0.305000          0.289673E-03
      0.310000          0.277726E-03
      0.315000          0.265200E-03
      0.320000          0.252354E-03
      0.325000          0.239447E-03
      0.330000          0.226724E-03
      0.335000          0.214402E-03
      0.340000          0.202666E-03
      0.345000          0.191658E-03
      0.350000          0.181479E-03
      0.355000          0.172187E-03
      0.360000          0.163800E-03
      0.365000          0.156302E-03
      0.370000          0.149651E-03
      0.375000          0.143783E-03
      0.380000          0.138625E-03
      0.385000          0.134096E-03
      0.390000          0.130114E-03
      0.395000          0.126605E-03
      0.400000          0.123500E-03
      0.405000          0.120742E-03
      0.410000          0.118280E-03
      0.415000          0.116078E-03
      0.420000          0.114104E-03
      0.425000          0.112335E-03
      0.430000          0.110752E-03
      0.435000          0.109340E-03
      0.440000          0.108087E-03
      0.445000          0.106980E-03
      0.450000          0.106005E-03
      0.455000          0.105149E-03
      0.460000          0.104396E-03
      0.465000          0.103727E-03
      0.470000          0.103125E-03
      0.475000          0.102567E-03
      0.480000          0.102032E-03
      0.485000          0.101496E-03
      0.490000          0.100936E-03
      0.495000          0.100331E-03
      0.500000          0.996581E-04
