 I_abs(s)[cm^-1]/c[mg/ml]
       0.00000          0.137669E-01
      0.500000E-02      0.136746E-01
      0.100000E-01      0.134014E-01
      0.150000E-01      0.129575E-01
      0.200000E-01      0.123599E-01
      0.250000E-01      0.116306E-01
      0.300000E-01      0.107958E-01
      0.350000E-01      0.988463E-02
      0.400000E-01      0.892705E-02
      0.450000E-01      0.795291E-02
      0.500000E-01      0.699026E-02
      0.550000E-01      0.606415E-02
      0.600000E-01      0.519572E-02
      0.650000E-01      0.440147E-02
      0.700000E-01      0.369297E-02
      0.750000E-01      0.307680E-02
      0.800000E-01      0.255485E-02
      0.850000E-01      0.212479E-02
      0.900000E-01      0.178084E-02
      0.950000E-01      0.151452E-02
      0.100000          0.131558E-02
      0.105000          0.117281E-02
      0.110000          0.107485E-02
      0.115000          0.101083E-02
      0.120000          0.970930E-03
      0.125000          0.946672E-03
      0.130000          0.931172E-03
      0.135000          0.919167E-03
      0.140000          0.906944E-03
      0.145000          0.892178E-03
      0.150000          0.873698E-03
      0.155000          0.851228E-03
      0.160000          0.825127E-03
      0.165000          0.796144E-03
      0.170000          0.765218E-03
      0.175000          0.733310E-03
      0.180000          0.701299E-03
      0.185000          0.669916E-03
      0.190000          0.639713E-03
      0.195000          0.611071E-03
      0.200000          0.584222E-03
      0.205000          0.559280E-03
      0.210000          0.536277E-03
      0.215000          0.515189E-03
      0.220000          0.495961E-03
      0.225000          0.478520E-03
      0.230000          0.462771E-03
      0.235000          0.448603E-03
      0.240000          0.435876E-03
      0.245000          0.424422E-03
      0.250000          0.414033E-03
      0.255000          0.404470E-03
      0.260000          0.395467E-03
      0.265000          0.386741E-03
      0.270000          0.378008E-03
      0.275000          0.369007E-03
      0.280000          0.359508E-03
      0.285000          0.349337E-03
      0.290000          0.338385E-03
      0.295000          0.326614E-03
      0.300000          0.314057E-03
      0.305000          0.300819E-03
      0.310000          0.287057E-03
      0.315000          0.272975E-03
      0.320000          0.258800E-03
      0.325000          0.244770E-03
      0.330000          0.231111E-03
      0.335000          0.218028E-03
      0.340000          0.205689E-03
      0.345000          0.194221E-03
      0.350000          0.183705E-03
      0.355000          0.174173E-03
      0.360000          0.165621E-03
      0.365000          0.158006E-03
      0.370000          0.151260E-03
      0.375000          0.145298E-03
      0.380000          0.140027E-03
      0.385000          0.135353E-03
      0.390000          0.131190E-03
      0.395000          0.127464E-03
      0.400000          0.124114E-03
      0.405000          0.121097E-03
      0.410000          0.118383E-03
      0.415000          0.115955E-03
      0.420000          0.113805E-03
      0.425000          0.111930E-03
      0.430000          0.110327E-03
      0.435000          0.108993E-03
      0.440000          0.107916E-03
      0.445000          0.107078E-03
      0.450000          0.106449E-03
      0.455000          0.105994E-03
      0.460000          0.105666E-03
      0.465000          0.105415E-03
      0.470000          0.105186E-03
      0.475000          0.104926E-03
      0.480000          0.104586E-03
      0.485000          0.104123E-03
      0.490000          0.103504E-03
      0.495000          0.102707E-03
      0.500000          0.101724E-03
