 I_abs(s)[cm^-1]/c[mg/ml]
       0.00000          0.147020E-01
      0.500000E-02      0.146285E-01
      0.100000E-01      0.144101E-01
      0.150000E-01      0.140538E-01
      0.200000E-01      0.135704E-01
      0.250000E-01      0.129746E-01
      0.300000E-01      0.122839E-01
      0.350000E-01      0.115177E-01
      0.400000E-01      0.106967E-01
      0.450000E-01      0.984163E-02
      0.500000E-01      0.897280E-02
      0.550000E-01      0.810889E-02
      0.600000E-01      0.726658E-02
      0.650000E-01      0.646000E-02
      0.700000E-01      0.570044E-02
      0.750000E-01      0.499625E-02
      0.800000E-01      0.435286E-02
      0.850000E-01      0.377302E-02
      0.900000E-01      0.325710E-02
      0.950000E-01      0.280349E-02
      0.100000          0.240901E-02
      0.105000          0.206938E-02
      0.110000          0.177965E-02
      0.115000          0.153453E-02
      0.120000          0.132872E-02
      0.125000          0.115713E-02
      0.130000          0.101504E-02
      0.135000          0.898184E-03
      0.140000          0.802756E-03
      0.145000          0.725412E-03
      0.150000          0.663218E-03
      0.155000          0.613586E-03
      0.160000          0.574219E-03
      0.165000          0.543061E-03
      0.170000          0.518268E-03
      0.175000          0.498186E-03
      0.180000          0.481361E-03
      0.185000          0.466546E-03
      0.190000          0.452727E-03
      0.195000          0.439138E-03
      0.200000          0.425273E-03
      0.205000          0.410885E-03
      0.210000          0.395968E-03
      0.215000          0.380726E-03
      0.220000          0.365523E-03
      0.225000          0.350828E-03
      0.230000          0.337145E-03
      0.235000          0.324954E-03
      0.240000          0.314651E-03
      0.245000          0.306504E-03
      0.250000          0.300618E-03
      0.255000          0.296929E-03
      0.260000          0.295204E-03
      0.265000          0.295066E-03
      0.270000          0.296028E-03
      0.275000          0.297541E-03
      0.280000          0.299038E-03
      0.285000          0.299985E-03
      0.290000          0.299924E-03
      0.295000          0.298501E-03
      0.300000          0.295493E-03
      0.305000          0.290810E-03
      0.310000          0.284493E-03
      0.315000          0.276701E-03
      0.320000          0.267680E-03
      0.325000          0.257738E-03
      0.330000          0.247215E-03
      0.335000          0.236448E-03
      0.340000          0.225748E-03
      0.345000          0.215380E-03
      0.350000          0.205549E-03
      0.355000          0.196392E-03
      0.360000          0.187986E-03
      0.365000          0.180346E-03
      0.370000          0.173445E-03
      0.375000          0.167218E-03
      0.380000          0.161583E-03
      0.385000          0.156449E-03
      0.390000          0.151729E-03
      0.395000          0.147345E-03
      0.400000          0.143235E-03
      0.405000          0.139350E-03
      0.410000          0.135659E-03
      0.415000          0.132138E-03
      0.420000          0.128777E-03
      0.425000          0.125565E-03
      0.430000          0.122496E-03
      0.435000          0.119563E-03
      0.440000          0.116757E-03
      0.445000          0.114068E-03
      0.450000          0.111487E-03
      0.455000          0.109006E-03
      0.460000          0.106621E-03
      0.465000          0.104332E-03
      0.470000          0.102144E-03
      0.475000          0.100067E-03
      0.480000          0.981141E-04
      0.485000          0.962996E-04
      0.490000          0.946375E-04
      0.495000          0.931378E-04
      0.500000          0.918053E-04
