 I_abs(s)[cm^-1]/c[mg/ml]
       0.00000          0.139219E-01
      0.500000E-02      0.138349E-01
      0.100000E-01      0.135771E-01
      0.150000E-01      0.131580E-01
      0.200000E-01      0.125929E-01
      0.250000E-01      0.119020E-01
      0.300000E-01      0.111093E-01
      0.350000E-01      0.102411E-01
      0.400000E-01      0.932506E-02
      0.450000E-01      0.838836E-02
      0.500000E-01      0.745671E-02
      0.550000E-01      0.655319E-02
      0.600000E-01      0.569740E-02
      0.650000E-01      0.490488E-02
      0.700000E-01      0.418681E-02
      0.750000E-01      0.355000E-02
      0.800000E-01      0.299717E-02
      0.850000E-01      0.252735E-02
      0.900000E-01      0.213653E-02
      0.950000E-01      0.181832E-02
      0.100000          0.156471E-02
      0.105000          0.136676E-02
      0.110000          0.121527E-02
      0.115000          0.110128E-02
      0.120000          0.101651E-02
      0.125000          0.953636E-03
      0.130000          0.906461E-03
      0.135000          0.869961E-03
      0.140000          0.840245E-03
      0.145000          0.814448E-03
      0.150000          0.790583E-03
      0.155000          0.767374E-03
      0.160000          0.744088E-03
      0.165000          0.720383E-03
      0.170000          0.696176E-03
      0.175000          0.671544E-03
      0.180000          0.646651E-03
      0.185000          0.621692E-03
      0.190000          0.596871E-03
      0.195000          0.572381E-03
      0.200000          0.548396E-03
      0.205000          0.525071E-03
      0.210000          0.502539E-03
      0.215000          0.480906E-03
      0.220000          0.460254E-03
      0.225000          0.440633E-03
      0.230000          0.422061E-03
      0.235000          0.404525E-03
      0.240000          0.387980E-03
      0.245000          0.372358E-03
      0.250000          0.357577E-03
      0.255000          0.343547E-03
      0.260000          0.330183E-03
      0.265000          0.317416E-03
      0.270000          0.305196E-03
      0.275000          0.293499E-03
      0.280000          0.282324E-03
      0.285000          0.271691E-03
      0.290000          0.261633E-03
      0.295000          0.252186E-03
      0.300000          0.243379E-03
      0.305000          0.235225E-03
      0.310000          0.227715E-03
      0.315000          0.220813E-03
      0.320000          0.214459E-03
      0.325000          0.208567E-03
      0.330000          0.203039E-03
      0.335000          0.197771E-03
      0.340000          0.192662E-03
      0.345000          0.187630E-03
      0.350000          0.182615E-03
      0.355000          0.177585E-03
      0.360000          0.172545E-03
      0.365000          0.167525E-03
      0.370000          0.162585E-03
      0.375000          0.157800E-03
      0.380000          0.153251E-03
      0.385000          0.149017E-03
      0.390000          0.145162E-03
      0.395000          0.141724E-03
      0.400000          0.138714E-03
      0.405000          0.136107E-03
      0.410000          0.133850E-03
      0.415000          0.131860E-03
      0.420000          0.130033E-03
      0.425000          0.128258E-03
      0.430000          0.126421E-03
      0.435000          0.124421E-03
      0.440000          0.122178E-03
      0.445000          0.119641E-03
      0.450000          0.116791E-03
      0.455000          0.113646E-03
      0.460000          0.110256E-03
      0.465000          0.106700E-03
      0.470000          0.103081E-03
      0.475000          0.995116E-04
      0.480000          0.961088E-04
      0.485000          0.929833E-04
      0.490000          0.902302E-04
      0.495000          0.879231E-04
      0.500000          0.861086E-04
