 I_abs(s)[cm^-1]/c[mg/ml]
       0.00000          0.133984E-01
      0.500000E-02      0.132712E-01
      0.100000E-01      0.128970E-01
      0.150000E-01      0.122977E-01
      0.200000E-01      0.115075E-01
      0.250000E-01      0.105699E-01
      0.300000E-01      0.953348E-02
      0.350000E-01      0.844857E-02
      0.400000E-01      0.736277E-02
      0.450000E-01      0.631788E-02
      0.500000E-01      0.534745E-02
      0.550000E-01      0.447545E-02
      0.600000E-01      0.371597E-02
      0.650000E-01      0.307395E-02
      0.700000E-01      0.254657E-02
      0.750000E-01      0.212520E-02
      0.800000E-01      0.179741E-02
      0.850000E-01      0.154894E-02
      0.900000E-01      0.136531E-02
      0.950000E-01      0.123298E-02
      0.100000          0.114005E-02
      0.105000          0.107647E-02
      0.110000          0.103400E-02
      0.115000          0.100589E-02
      0.120000          0.986570E-03
      0.125000          0.971356E-03
      0.130000          0.956270E-03
      0.135000          0.938016E-03
      0.140000          0.914058E-03
      0.145000          0.882761E-03
      0.150000          0.843520E-03
      0.155000          0.796819E-03
      0.160000          0.744165E-03
      0.165000          0.687897E-03
      0.170000          0.630871E-03
      0.175000          0.576079E-03
      0.180000          0.526251E-03
      0.185000          0.483505E-03
      0.190000          0.449109E-03
      0.195000          0.423371E-03
      0.200000          0.405687E-03
      0.205000          0.394708E-03
      0.210000          0.388605E-03
      0.215000          0.385377E-03
      0.220000          0.383137E-03
      0.225000          0.380353E-03
      0.230000          0.375987E-03
      0.235000          0.369547E-03
      0.240000          0.361033E-03
      0.245000          0.350826E-03
      0.250000          0.339526E-03
      0.255000          0.327793E-03
      0.260000          0.316216E-03
      0.265000          0.305221E-03
      0.270000          0.295035E-03
      0.275000          0.285702E-03
      0.280000          0.277129E-03
      0.285000          0.269153E-03
      0.290000          0.261605E-03
      0.295000          0.254361E-03
      0.300000          0.247357E-03
      0.305000          0.240593E-03
      0.310000          0.234102E-03
      0.315000          0.227922E-03
      0.320000          0.222058E-03
      0.325000          0.216464E-03
      0.330000          0.211040E-03
      0.335000          0.205648E-03
      0.340000          0.200144E-03
      0.345000          0.194415E-03
      0.350000          0.188415E-03
      0.355000          0.182190E-03
      0.360000          0.175881E-03
      0.365000          0.169711E-03
      0.370000          0.163950E-03
      0.375000          0.158873E-03
      0.380000          0.154708E-03
      0.385000          0.151595E-03
      0.390000          0.149562E-03
      0.395000          0.148513E-03
      0.400000          0.148242E-03
      0.405000          0.148463E-03
      0.410000          0.148852E-03
      0.415000          0.149094E-03
      0.420000          0.148925E-03
      0.425000          0.148163E-03
      0.430000          0.146722E-03
      0.435000          0.144615E-03
      0.440000          0.141934E-03
      0.445000          0.138827E-03
      0.450000          0.135466E-03
      0.455000          0.132017E-03
      0.460000          0.128615E-03
      0.465000          0.125355E-03
      0.470000          0.122282E-03
      0.475000          0.119403E-03
      0.480000          0.116698E-03
      0.485000          0.114135E-03
      0.490000          0.111685E-03
      0.495000          0.109338E-03
      0.500000          0.107103E-03
