 I_abs(s)[cm^-1]/c[mg/ml]
       0.00000          0.145427E-01
      0.500000E-02      0.144720E-01
      0.100000E-01      0.142616E-01
      0.150000E-01      0.139175E-01
      0.200000E-01      0.134491E-01
      0.250000E-01      0.128689E-01
      0.300000E-01      0.121922E-01
      0.350000E-01      0.114365E-01
      0.400000E-01      0.106205E-01
      0.450000E-01      0.976360E-02
      0.500000E-01      0.888508E-02
      0.550000E-01      0.800357E-02
      0.600000E-01      0.713635E-02
      0.650000E-01      0.629881E-02
      0.700000E-01      0.550413E-02
      0.750000E-01      0.476292E-02
      0.800000E-01      0.408318E-02
      0.850000E-01      0.347017E-02
      0.900000E-01      0.292663E-02
      0.950000E-01      0.245286E-02
      0.100000          0.204710E-02
      0.105000          0.170583E-02
      0.110000          0.142413E-02
      0.115000          0.119611E-02
      0.120000          0.101526E-02
      0.125000          0.874827E-03
      0.130000          0.768119E-03
      0.135000          0.688764E-03
      0.140000          0.630922E-03
      0.145000          0.589421E-03
      0.150000          0.559850E-03
      0.155000          0.538584E-03
      0.160000          0.522768E-03
      0.165000          0.510266E-03
      0.170000          0.499579E-03
      0.175000          0.489741E-03
      0.180000          0.480212E-03
      0.185000          0.470771E-03
      0.190000          0.461406E-03
      0.195000          0.452229E-03
      0.200000          0.443399E-03
      0.205000          0.435061E-03
      0.210000          0.427309E-03
      0.215000          0.420164E-03
      0.220000          0.413564E-03
      0.225000          0.407370E-03
      0.230000          0.401384E-03
      0.235000          0.395368E-03
      0.240000          0.389069E-03
      0.245000          0.382244E-03
      0.250000          0.374683E-03
      0.255000          0.366227E-03
      0.260000          0.356783E-03
      0.265000          0.346328E-03
      0.270000          0.334912E-03
      0.275000          0.322652E-03
      0.280000          0.309725E-03
      0.285000          0.296348E-03
      0.290000          0.282768E-03
      0.295000          0.269244E-03
      0.300000          0.256027E-03
      0.305000          0.243348E-03
      0.310000          0.231404E-03
      0.315000          0.220348E-03
      0.320000          0.210288E-03
      0.325000          0.201279E-03
      0.330000          0.193328E-03
      0.335000          0.186397E-03
      0.340000          0.180413E-03
      0.345000          0.175274E-03
      0.350000          0.170859E-03
      0.355000          0.167037E-03
      0.360000          0.163680E-03
      0.365000          0.160665E-03
      0.370000          0.157883E-03
      0.375000          0.155242E-03
      0.380000          0.152672E-03
      0.385000          0.150123E-03
      0.390000          0.147564E-03
      0.395000          0.144981E-03
      0.400000          0.142375E-03
      0.405000          0.139757E-03
      0.410000          0.137147E-03
      0.415000          0.134567E-03
      0.420000          0.132041E-03
      0.425000          0.129590E-03
      0.430000          0.127234E-03
      0.435000          0.124988E-03
      0.440000          0.122861E-03
      0.445000          0.120861E-03
      0.450000          0.118988E-03
      0.455000          0.117242E-03
      0.460000          0.115619E-03
      0.465000          0.114112E-03
      0.470000          0.112713E-03
      0.475000          0.111415E-03
      0.480000          0.110207E-03
      0.485000          0.109082E-03
      0.490000          0.108029E-03
      0.495000          0.107039E-03
      0.500000          0.106102E-03
