 I_abs(s)[cm^-1]/c[mg/ml]
       0.00000          0.130349E-01
      0.500000E-02      0.129058E-01
      0.100000E-01      0.125263E-01
      0.150000E-01      0.119195E-01
      0.200000E-01      0.111214E-01
      0.250000E-01      0.101775E-01
      0.300000E-01      0.913911E-02
      0.350000E-01      0.805842E-02
      0.400000E-01      0.698475E-02
      0.450000E-01      0.596084E-02
      0.500000E-01      0.502030E-02
      0.550000E-01      0.418619E-02
      0.600000E-01      0.347077E-02
      0.650000E-01      0.287638E-02
      0.700000E-01      0.239706E-02
      0.750000E-01      0.202082E-02
      0.800000E-01      0.173206E-02
      0.850000E-01      0.151382E-02
      0.900000E-01      0.134976E-02
      0.950000E-01      0.122555E-02
      0.100000          0.112966E-02
      0.105000          0.105362E-02
      0.110000          0.991773E-03
      0.115000          0.940760E-03
      0.120000          0.898802E-03
      0.125000          0.864999E-03
      0.130000          0.838739E-03
      0.135000          0.819291E-03
      0.140000          0.805590E-03
      0.145000          0.796217E-03
      0.150000          0.789512E-03
      0.155000          0.783757E-03
      0.160000          0.777374E-03
      0.165000          0.769085E-03
      0.170000          0.758008E-03
      0.175000          0.743676E-03
      0.180000          0.725998E-03
      0.185000          0.705172E-03
      0.190000          0.681594E-03
      0.195000          0.655760E-03
      0.200000          0.628207E-03
      0.205000          0.599477E-03
      0.210000          0.570107E-03
      0.215000          0.540642E-03
      0.220000          0.511640E-03
      0.225000          0.483676E-03
      0.230000          0.457323E-03
      0.235000          0.433121E-03
      0.240000          0.411521E-03
      0.245000          0.392836E-03
      0.250000          0.377197E-03
      0.255000          0.364527E-03
      0.260000          0.354541E-03
      0.265000          0.346779E-03
      0.270000          0.340661E-03
      0.275000          0.335558E-03
      0.280000          0.330871E-03
      0.285000          0.326099E-03
      0.290000          0.320889E-03
      0.295000          0.315062E-03
      0.300000          0.308611E-03
      0.305000          0.301671E-03
      0.310000          0.294471E-03
      0.315000          0.287283E-03
      0.320000          0.280360E-03
      0.325000          0.273894E-03
      0.330000          0.267984E-03
      0.335000          0.262627E-03
      0.340000          0.257726E-03
      0.345000          0.253110E-03
      0.350000          0.248573E-03
      0.355000          0.243902E-03
      0.360000          0.238919E-03
      0.365000          0.233496E-03
      0.370000          0.227582E-03
      0.375000          0.221193E-03
      0.380000          0.214417E-03
      0.385000          0.207389E-03
      0.390000          0.200274E-03
      0.395000          0.193247E-03
      0.400000          0.186473E-03
      0.405000          0.180086E-03
      0.410000          0.174187E-03
      0.415000          0.168828E-03
      0.420000          0.164023E-03
      0.425000          0.159744E-03
      0.430000          0.155933E-03
      0.435000          0.152510E-03
      0.440000          0.149384E-03
      0.445000          0.146463E-03
      0.450000          0.143664E-03
      0.455000          0.140917E-03
      0.460000          0.138176E-03
      0.465000          0.135418E-03
      0.470000          0.132643E-03
      0.475000          0.129874E-03
      0.480000          0.127147E-03
      0.485000          0.124510E-03
      0.490000          0.122007E-03
      0.495000          0.119678E-03
      0.500000          0.117544E-03
