 I_abs(s)[cm^-1]/c[mg/ml]
       0.00000          0.141013E-01
      0.500000E-02      0.139866E-01
      0.100000E-01      0.136484E-01
      0.150000E-01      0.131041E-01
      0.200000E-01      0.123813E-01
      0.250000E-01      0.115152E-01
      0.300000E-01      0.105459E-01
      0.350000E-01      0.951585E-02
      0.400000E-01      0.846623E-02
      0.450000E-01      0.743467E-02
      0.500000E-01      0.645303E-02
      0.550000E-01      0.554598E-02
      0.600000E-01      0.473036E-02
      0.650000E-01      0.401530E-02
      0.700000E-01      0.340293E-02
      0.750000E-01      0.288955E-02
      0.800000E-01      0.246711E-02
      0.850000E-01      0.212481E-02
      0.900000E-01      0.185050E-02
      0.950000E-01      0.163197E-02
      0.100000          0.145784E-02
      0.105000          0.131824E-02
      0.110000          0.120499E-02
      0.115000          0.111172E-02
      0.120000          0.103363E-02
      0.125000          0.967210E-03
      0.130000          0.909963E-03
      0.135000          0.860070E-03
      0.140000          0.816163E-03
      0.145000          0.777155E-03
      0.150000          0.742141E-03
      0.155000          0.710353E-03
      0.160000          0.681141E-03
      0.165000          0.653979E-03
      0.170000          0.628450E-03
      0.175000          0.604240E-03
      0.180000          0.581106E-03
      0.185000          0.558844E-03
      0.190000          0.537264E-03
      0.195000          0.516173E-03
      0.200000          0.495373E-03
      0.205000          0.474680E-03
      0.210000          0.453949E-03
      0.215000          0.433114E-03
      0.220000          0.412216E-03
      0.225000          0.391422E-03
      0.230000          0.371020E-03
      0.235000          0.351401E-03
      0.240000          0.333016E-03
      0.245000          0.316322E-03
      0.250000          0.301723E-03
      0.255000          0.289519E-03
      0.260000          0.279863E-03
      0.265000          0.272747E-03
      0.270000          0.267995E-03
      0.275000          0.265292E-03
      0.280000          0.264213E-03
      0.285000          0.264276E-03
      0.290000          0.264983E-03
      0.295000          0.265865E-03
      0.300000          0.266512E-03
      0.305000          0.266591E-03
      0.310000          0.265857E-03
      0.315000          0.264146E-03
      0.320000          0.261368E-03
      0.325000          0.257491E-03
      0.330000          0.252533E-03
      0.335000          0.246549E-03
      0.340000          0.239624E-03
      0.345000          0.231879E-03
      0.350000          0.223462E-03
      0.355000          0.214554E-03
      0.360000          0.205361E-03
      0.365000          0.196115E-03
      0.370000          0.187056E-03
      0.375000          0.178427E-03
      0.380000          0.170446E-03
      0.385000          0.163302E-03
      0.390000          0.157131E-03
      0.395000          0.152010E-03
      0.400000          0.147951E-03
      0.405000          0.144903E-03
      0.410000          0.142760E-03
      0.415000          0.141372E-03
      0.420000          0.140560E-03
      0.425000          0.140138E-03
      0.430000          0.139923E-03
      0.435000          0.139751E-03
      0.440000          0.139488E-03
      0.445000          0.139034E-03
      0.450000          0.138324E-03
      0.455000          0.137326E-03
      0.460000          0.136037E-03
      0.465000          0.134474E-03
      0.470000          0.132665E-03
      0.475000          0.130647E-03
      0.480000          0.128455E-03
      0.485000          0.126121E-03
      0.490000          0.123670E-03
      0.495000          0.121120E-03
      0.500000          0.118487E-03
