 I_abs(s)[cm^-1]/c[mg/ml]
       0.00000          0.141718E-01
      0.500000E-02      0.140694E-01
      0.100000E-01      0.137672E-01
      0.150000E-01      0.132801E-01
      0.200000E-01      0.126316E-01
      0.250000E-01      0.118520E-01
      0.300000E-01      0.109763E-01
      0.350000E-01      0.100414E-01
      0.400000E-01      0.908390E-02
      0.450000E-01      0.813757E-02
      0.500000E-01      0.723139E-02
      0.550000E-01      0.638818E-02
      0.600000E-01      0.562379E-02
      0.650000E-01      0.494695E-02
      0.700000E-01      0.435972E-02
      0.750000E-01      0.385847E-02
      0.800000E-01      0.343517E-02
      0.850000E-01      0.307894E-02
      0.900000E-01      0.277756E-02
      0.950000E-01      0.251889E-02
      0.100000          0.229203E-02
      0.105000          0.208811E-02
      0.110000          0.190076E-02
      0.115000          0.172614E-02
      0.120000          0.156269E-02
      0.125000          0.141065E-02
      0.130000          0.127141E-02
      0.135000          0.114682E-02
      0.140000          0.103861E-02
      0.145000          0.947814E-03
      0.150000          0.874518E-03
      0.155000          0.817693E-03
      0.160000          0.775267E-03
      0.165000          0.744338E-03
      0.170000          0.721502E-03
      0.175000          0.703229E-03
      0.180000          0.686227E-03
      0.185000          0.667764E-03
      0.190000          0.645887E-03
      0.195000          0.619531E-03
      0.200000          0.588515E-03
      0.205000          0.553436E-03
      0.210000          0.515480E-03
      0.215000          0.476191E-03
      0.220000          0.437226E-03
      0.225000          0.400132E-03
      0.230000          0.366169E-03
      0.235000          0.336193E-03
      0.240000          0.310613E-03
      0.245000          0.289403E-03
      0.250000          0.272180E-03
      0.255000          0.258307E-03
      0.260000          0.247018E-03
      0.265000          0.237541E-03
      0.270000          0.229196E-03
      0.275000          0.221470E-03
      0.280000          0.214051E-03
      0.285000          0.206826E-03
      0.290000          0.199852E-03
      0.295000          0.193306E-03
      0.300000          0.187417E-03
      0.305000          0.182408E-03
      0.310000          0.178441E-03
      0.315000          0.175582E-03
      0.320000          0.173787E-03
      0.325000          0.172904E-03
      0.330000          0.172694E-03
      0.335000          0.172869E-03
      0.340000          0.173127E-03
      0.345000          0.173197E-03
      0.350000          0.172863E-03
      0.355000          0.171992E-03
      0.360000          0.170538E-03
      0.365000          0.168539E-03
      0.370000          0.166102E-03
      0.375000          0.163374E-03
      0.380000          0.160522E-03
      0.385000          0.157699E-03
      0.390000          0.155022E-03
      0.395000          0.152563E-03
      0.400000          0.150335E-03
      0.405000          0.148299E-03
      0.410000          0.146372E-03
      0.415000          0.144448E-03
      0.420000          0.142411E-03
      0.425000          0.140157E-03
      0.430000          0.137614E-03
      0.435000          0.134745E-03
      0.440000          0.131562E-03
      0.445000          0.128117E-03
      0.450000          0.124500E-03
      0.455000          0.120823E-03
      0.460000          0.117207E-03
      0.465000          0.113767E-03
      0.470000          0.110599E-03
      0.475000          0.107766E-03
      0.480000          0.105298E-03
      0.485000          0.103186E-03
      0.490000          0.101388E-03
      0.495000          0.998386E-04
      0.500000          0.984555E-04
