 I_abs(s)[cm^-1]/c[mg/ml]
       0.00000          0.140466E-01
      0.500000E-02      0.139255E-01
      0.100000E-01      0.135689E-01
      0.150000E-01      0.129956E-01
      0.200000E-01      0.122352E-01
      0.250000E-01      0.113257E-01
      0.300000E-01      0.103102E-01
      0.350000E-01      0.923381E-02
      0.400000E-01      0.814024E-02
      0.450000E-01      0.706903E-02
      0.500000E-01      0.605339E-02
      0.550000E-01      0.511883E-02
      0.600000E-01      0.428261E-02
      0.650000E-01      0.355398E-02
      0.700000E-01      0.293507E-02
      0.750000E-01      0.242222E-02
      0.800000E-01      0.200747E-02
      0.850000E-01      0.168015E-02
      0.900000E-01      0.142820E-02
      0.950000E-01      0.123934E-02
      0.100000          0.110184E-02
      0.105000          0.100501E-02
      0.110000          0.939377E-03
      0.115000          0.896756E-03
      0.120000          0.870143E-03
      0.125000          0.853606E-03
      0.130000          0.842192E-03
      0.135000          0.831871E-03
      0.140000          0.819526E-03
      0.145000          0.802970E-03
      0.150000          0.780949E-03
      0.155000          0.753112E-03
      0.160000          0.719925E-03
      0.165000          0.682519E-03
      0.170000          0.642483E-03
      0.175000          0.601624E-03
      0.180000          0.561725E-03
      0.185000          0.524328E-03
      0.190000          0.490578E-03
      0.195000          0.461132E-03
      0.200000          0.436154E-03
      0.205000          0.415367E-03
      0.210000          0.398166E-03
      0.215000          0.383753E-03
      0.220000          0.371273E-03
      0.225000          0.359940E-03
      0.230000          0.349116E-03
      0.235000          0.338362E-03
      0.240000          0.327443E-03
      0.245000          0.316308E-03
      0.250000          0.305043E-03
      0.255000          0.293826E-03
      0.260000          0.282873E-03
      0.265000          0.272400E-03
      0.270000          0.262602E-03
      0.275000          0.253632E-03
      0.280000          0.245598E-03
      0.285000          0.238565E-03
      0.290000          0.232557E-03
      0.295000          0.227557E-03
      0.300000          0.223509E-03
      0.305000          0.220315E-03
      0.310000          0.217842E-03
      0.315000          0.215922E-03
      0.320000          0.214365E-03
      0.325000          0.212966E-03
      0.330000          0.211528E-03
      0.335000          0.209874E-03
      0.340000          0.207863E-03
      0.345000          0.205402E-03
      0.350000          0.202448E-03
      0.355000          0.199007E-03
      0.360000          0.195127E-03
      0.365000          0.190883E-03
      0.370000          0.186366E-03
      0.375000          0.181671E-03
      0.380000          0.176887E-03
      0.385000          0.172094E-03
      0.390000          0.167359E-03
      0.395000          0.162742E-03
      0.400000          0.158295E-03
      0.405000          0.154073E-03
      0.410000          0.150127E-03
      0.415000          0.146509E-03
      0.420000          0.143265E-03
      0.425000          0.140431E-03
      0.430000          0.138023E-03
      0.435000          0.136037E-03
      0.440000          0.134439E-03
      0.445000          0.133170E-03
      0.450000          0.132146E-03
      0.455000          0.131269E-03
      0.460000          0.130432E-03
      0.465000          0.129533E-03
      0.470000          0.128482E-03
      0.475000          0.127209E-03
      0.480000          0.125669E-03
      0.485000          0.123844E-03
      0.490000          0.121741E-03
      0.495000          0.119388E-03
      0.500000          0.116829E-03
