 I_abs(s)[cm^-1]/c[mg/ml]
       0.00000          0.138288E-01
      0.500000E-02      0.137284E-01
      0.100000E-01      0.134313E-01
      0.150000E-01      0.129505E-01
      0.200000E-01      0.123065E-01
      0.250000E-01      0.115259E-01
      0.300000E-01      0.106401E-01
      0.350000E-01      0.968280E-02
      0.400000E-01      0.868866E-02
      0.450000E-01      0.769078E-02
      0.500000E-01      0.671924E-02
      0.550000E-01      0.579972E-02
      0.600000E-01      0.495248E-02
      0.650000E-01      0.419190E-02
      0.700000E-01      0.352639E-02
      0.750000E-01      0.295873E-02
      0.800000E-01      0.248676E-02
      0.850000E-01      0.210428E-02
      0.900000E-01      0.180210E-02
      0.950000E-01      0.156914E-02
      0.100000          0.139345E-02
      0.105000          0.126312E-02
      0.110000          0.116703E-02
      0.115000          0.109540E-02
      0.120000          0.104005E-02
      0.125000          0.994603E-03
      0.130000          0.954424E-03
      0.135000          0.916454E-03
      0.140000          0.878974E-03
      0.145000          0.841311E-03
      0.150000          0.803531E-03
      0.155000          0.766157E-03
      0.160000          0.729915E-03
      0.165000          0.695544E-03
      0.170000          0.663649E-03
      0.175000          0.634618E-03
      0.180000          0.608586E-03
      0.185000          0.585439E-03
      0.190000          0.564853E-03
      0.195000          0.546353E-03
      0.200000          0.529381E-03
      0.205000          0.513370E-03
      0.210000          0.497809E-03
      0.215000          0.482298E-03
      0.220000          0.466577E-03
      0.225000          0.450551E-03
      0.230000          0.434279E-03
      0.235000          0.417955E-03
      0.240000          0.401867E-03
      0.245000          0.386357E-03
      0.250000          0.371761E-03
      0.255000          0.358367E-03
      0.260000          0.346375E-03
      0.265000          0.335866E-03
      0.270000          0.326796E-03
      0.275000          0.318998E-03
      0.280000          0.312208E-03
      0.285000          0.306094E-03
      0.290000          0.300299E-03
      0.295000          0.294483E-03
      0.300000          0.288361E-03
      0.305000          0.281735E-03
      0.310000          0.274508E-03
      0.315000          0.266689E-03
      0.320000          0.258387E-03
      0.325000          0.249783E-03
      0.330000          0.241105E-03
      0.335000          0.232597E-03
      0.340000          0.224481E-03
      0.345000          0.216936E-03
      0.350000          0.210078E-03
      0.355000          0.203950E-03
      0.360000          0.198523E-03
      0.365000          0.193709E-03
      0.370000          0.189376E-03
      0.375000          0.185369E-03
      0.380000          0.181533E-03
      0.385000          0.177730E-03
      0.390000          0.173857E-03
      0.395000          0.169853E-03
      0.400000          0.165702E-03
      0.405000          0.161428E-03
      0.410000          0.157090E-03
      0.415000          0.152767E-03
      0.420000          0.148548E-03
      0.425000          0.144516E-03
      0.430000          0.140745E-03
      0.435000          0.137282E-03
      0.440000          0.134154E-03
      0.445000          0.131358E-03
      0.450000          0.128872E-03
      0.455000          0.126651E-03
      0.460000          0.124640E-03
      0.465000          0.122775E-03
      0.470000          0.120991E-03
      0.475000          0.119231E-03
      0.480000          0.117444E-03
      0.485000          0.115591E-03
      0.490000          0.113646E-03
      0.495000          0.111598E-03
      0.500000          0.109447E-03
