 I_abs(s)[cm^-1]/c[mg/ml]
       0.00000          0.141091E-01
      0.500000E-02      0.140239E-01
      0.100000E-01      0.137717E-01
      0.150000E-01      0.133630E-01
      0.200000E-01      0.128144E-01
      0.250000E-01      0.121474E-01
      0.300000E-01      0.113876E-01
      0.350000E-01      0.105624E-01
      0.400000E-01      0.969995E-02
      0.450000E-01      0.882733E-02
      0.500000E-01      0.796911E-02
      0.550000E-01      0.714627E-02
      0.600000E-01      0.637538E-02
      0.650000E-01      0.566817E-02
      0.700000E-01      0.503146E-02
      0.750000E-01      0.446748E-02
      0.800000E-01      0.397442E-02
      0.850000E-01      0.354726E-02
      0.900000E-01      0.317871E-02
      0.950000E-01      0.286015E-02
      0.100000          0.258260E-02
      0.105000          0.233747E-02
      0.110000          0.211724E-02
      0.115000          0.191585E-02
      0.120000          0.172891E-02
      0.125000          0.155374E-02
      0.130000          0.138914E-02
      0.135000          0.123516E-02
      0.140000          0.109268E-02
      0.145000          0.963010E-03
      0.150000          0.847527E-03
      0.155000          0.747331E-03
      0.160000          0.663017E-03
      0.165000          0.594530E-03
      0.170000          0.541127E-03
      0.175000          0.501432E-03
      0.180000          0.473557E-03
      0.185000          0.455279E-03
      0.190000          0.444231E-03
      0.195000          0.438094E-03
      0.200000          0.434764E-03
      0.205000          0.432477E-03
      0.210000          0.429886E-03
      0.215000          0.426089E-03
      0.220000          0.420608E-03
      0.225000          0.413331E-03
      0.230000          0.404431E-03
      0.235000          0.394265E-03
      0.240000          0.383286E-03
      0.245000          0.371951E-03
      0.250000          0.360658E-03
      0.255000          0.349702E-03
      0.260000          0.339251E-03
      0.265000          0.329354E-03
      0.270000          0.319952E-03
      0.275000          0.310913E-03
      0.280000          0.302064E-03
      0.285000          0.293229E-03
      0.290000          0.284256E-03
      0.295000          0.275040E-03
      0.300000          0.265535E-03
      0.305000          0.255753E-03
      0.310000          0.245765E-03
      0.315000          0.235681E-03
      0.320000          0.225640E-03
      0.325000          0.215788E-03
      0.330000          0.206270E-03
      0.335000          0.197212E-03
      0.340000          0.188715E-03
      0.345000          0.180852E-03
      0.350000          0.173669E-03
      0.355000          0.167184E-03
      0.360000          0.161397E-03
      0.365000          0.156290E-03
      0.370000          0.151835E-03
      0.375000          0.147998E-03
      0.380000          0.144737E-03
      0.385000          0.142007E-03
      0.390000          0.139758E-03
      0.395000          0.137934E-03
      0.400000          0.136470E-03
      0.405000          0.135298E-03
      0.410000          0.134341E-03
      0.415000          0.133520E-03
      0.420000          0.132754E-03
      0.425000          0.131968E-03
      0.430000          0.131094E-03
      0.435000          0.130077E-03
      0.440000          0.128881E-03
      0.445000          0.127487E-03
      0.450000          0.125897E-03
      0.455000          0.124133E-03
      0.460000          0.122230E-03
      0.465000          0.120237E-03
      0.470000          0.118209E-03
      0.475000          0.116200E-03
      0.480000          0.114259E-03
      0.485000          0.112424E-03
      0.490000          0.110721E-03
      0.495000          0.109156E-03
      0.500000          0.107723E-03
