 I_abs(s)[cm^-1]/c[mg/ml]
       0.00000          0.147900E-01
      0.500000E-02      0.147302E-01
      0.100000E-01      0.145519E-01
      0.150000E-01      0.142590E-01
      0.200000E-01      0.138575E-01
      0.250000E-01      0.133558E-01
      0.300000E-01      0.127642E-01
      0.350000E-01      0.120946E-01
      0.400000E-01      0.113603E-01
      0.450000E-01      0.105752E-01
      0.500000E-01      0.975408E-02
      0.550000E-01      0.891165E-02
      0.600000E-01      0.806238E-02
      0.650000E-01      0.722006E-02
      0.700000E-01      0.639754E-02
      0.750000E-01      0.560637E-02
      0.800000E-01      0.485664E-02
      0.850000E-01      0.415672E-02
      0.900000E-01      0.351322E-02
      0.950000E-01      0.293089E-02
      0.100000          0.241268E-02
      0.105000          0.195974E-02
      0.110000          0.157159E-02
      0.115000          0.124626E-02
      0.120000          0.980489E-03
      0.125000          0.769942E-03
      0.130000          0.609453E-03
      0.135000          0.493256E-03
      0.140000          0.415235E-03
      0.145000          0.369142E-03
      0.150000          0.348806E-03
      0.155000          0.348319E-03
      0.160000          0.362185E-03
      0.165000          0.385445E-03
      0.170000          0.413762E-03
      0.175000          0.443476E-03
      0.180000          0.471632E-03
      0.185000          0.495968E-03
      0.190000          0.514889E-03
      0.195000          0.527411E-03
      0.200000          0.533098E-03
      0.205000          0.531979E-03
      0.210000          0.524461E-03
      0.215000          0.511243E-03
      0.220000          0.493227E-03
      0.225000          0.471437E-03
      0.230000          0.446947E-03
      0.235000          0.420814E-03
      0.240000          0.394029E-03
      0.245000          0.367476E-03
      0.250000          0.341904E-03
      0.255000          0.317912E-03
      0.260000          0.295938E-03
      0.265000          0.276271E-03
      0.270000          0.259052E-03
      0.275000          0.244298E-03
      0.280000          0.231917E-03
      0.285000          0.221734E-03
      0.290000          0.213510E-03
      0.295000          0.206969E-03
      0.300000          0.201817E-03
      0.305000          0.197760E-03
      0.310000          0.194518E-03
      0.315000          0.191839E-03
      0.320000          0.189506E-03
      0.325000          0.187340E-03
      0.330000          0.185206E-03
      0.335000          0.183009E-03
      0.340000          0.180689E-03
      0.345000          0.178222E-03
      0.350000          0.175610E-03
      0.355000          0.172876E-03
      0.360000          0.170055E-03
      0.365000          0.167195E-03
      0.370000          0.164342E-03
      0.375000          0.161545E-03
      0.380000          0.158843E-03
      0.385000          0.156272E-03
      0.390000          0.153855E-03
      0.395000          0.151606E-03
      0.400000          0.149529E-03
      0.405000          0.147620E-03
      0.410000          0.145865E-03
      0.415000          0.144248E-03
      0.420000          0.142743E-03
      0.425000          0.141327E-03
      0.430000          0.139973E-03
      0.435000          0.138656E-03
      0.440000          0.137352E-03
      0.445000          0.136042E-03
      0.450000          0.134707E-03
      0.455000          0.133336E-03
      0.460000          0.131917E-03
      0.465000          0.130445E-03
      0.470000          0.128915E-03
      0.475000          0.127326E-03
      0.480000          0.125678E-03
      0.485000          0.123973E-03
      0.490000          0.122212E-03
      0.495000          0.120398E-03
      0.500000          0.118531E-03
