 I_abs(s)[cm^-1]/c[mg/ml]
       0.00000          0.142503E-01
      0.500000E-02      0.141621E-01
      0.100000E-01      0.139007E-01
      0.150000E-01      0.134760E-01
      0.200000E-01      0.129038E-01
      0.250000E-01      0.122049E-01
      0.300000E-01      0.114037E-01
      0.350000E-01      0.105273E-01
      0.400000E-01      0.960352E-02
      0.450000E-01      0.865996E-02
      0.500000E-01      0.772230E-02
      0.550000E-01      0.681336E-02
      0.600000E-01      0.595224E-02
      0.650000E-01      0.515375E-02
      0.700000E-01      0.442822E-02
      0.750000E-01      0.378153E-02
      0.800000E-01      0.321547E-02
      0.850000E-01      0.272832E-02
      0.900000E-01      0.231549E-02
      0.950000E-01      0.197036E-02
      0.100000          0.168502E-02
      0.105000          0.145105E-02
      0.110000          0.126011E-02
      0.115000          0.110443E-02
      0.120000          0.977223E-03
      0.125000          0.872782E-03
      0.130000          0.786585E-03
      0.135000          0.715202E-03
      0.140000          0.656141E-03
      0.145000          0.607638E-03
      0.150000          0.568431E-03
      0.155000          0.537544E-03
      0.160000          0.514103E-03
      0.165000          0.497210E-03
      0.170000          0.485861E-03
      0.175000          0.478926E-03
      0.180000          0.475176E-03
      0.185000          0.473334E-03
      0.190000          0.472163E-03
      0.195000          0.470537E-03
      0.200000          0.467523E-03
      0.205000          0.462433E-03
      0.210000          0.454855E-03
      0.215000          0.444655E-03
      0.220000          0.431958E-03
      0.225000          0.417101E-03
      0.230000          0.400581E-03
      0.235000          0.382988E-03
      0.240000          0.364944E-03
      0.245000          0.347043E-03
      0.250000          0.329813E-03
      0.255000          0.313677E-03
      0.260000          0.298945E-03
      0.265000          0.285805E-03
      0.270000          0.274335E-03
      0.275000          0.264517E-03
      0.280000          0.256258E-03
      0.285000          0.249411E-03
      0.290000          0.243795E-03
      0.295000          0.239211E-03
      0.300000          0.235453E-03
      0.305000          0.232318E-03
      0.310000          0.229613E-03
      0.315000          0.227152E-03
      0.320000          0.224767E-03
      0.325000          0.222302E-03
      0.330000          0.219620E-03
      0.335000          0.216607E-03
      0.340000          0.213177E-03
      0.345000          0.209274E-03
      0.350000          0.204879E-03
      0.355000          0.200011E-03
      0.360000          0.194728E-03
      0.365000          0.189125E-03
      0.370000          0.183324E-03
      0.375000          0.177472E-03
      0.380000          0.171723E-03
      0.385000          0.166234E-03
      0.390000          0.161146E-03
      0.395000          0.156576E-03
      0.400000          0.152607E-03
      0.405000          0.149283E-03
      0.410000          0.146607E-03
      0.415000          0.144540E-03
      0.420000          0.143006E-03
      0.425000          0.141903E-03
      0.430000          0.141106E-03
      0.435000          0.140484E-03
      0.440000          0.139904E-03
      0.445000          0.139247E-03
      0.450000          0.138412E-03
      0.455000          0.137320E-03
      0.460000          0.135923E-03
      0.465000          0.134199E-03
      0.470000          0.132152E-03
      0.475000          0.129809E-03
      0.480000          0.127214E-03
      0.485000          0.124422E-03
      0.490000          0.121493E-03
      0.495000          0.118489E-03
      0.500000          0.115466E-03
