 I_abs(s)[cm^-1]/c[mg/ml]
       0.00000          0.141483E-01
      0.500000E-02      0.140428E-01
      0.100000E-01      0.137310E-01
      0.150000E-01      0.132262E-01
      0.200000E-01      0.125495E-01
      0.250000E-01      0.117286E-01
      0.300000E-01      0.107964E-01
      0.350000E-01      0.978817E-02
      0.400000E-01      0.874042E-02
      0.450000E-01      0.768832E-02
      0.500000E-01      0.666407E-02
      0.550000E-01      0.569541E-02
      0.600000E-01      0.480450E-02
      0.650000E-01      0.400729E-02
      0.700000E-01      0.331334E-02
      0.750000E-01      0.272610E-02
      0.800000E-01      0.224350E-02
      0.850000E-01      0.185892E-02
      0.900000E-01      0.156229E-02
      0.950000E-01      0.134123E-02
      0.100000          0.118227E-02
      0.105000          0.107187E-02
      0.110000          0.997308E-03
      0.115000          0.947349E-03
      0.120000          0.912646E-03
      0.125000          0.885936E-03
      0.130000          0.862027E-03
      0.135000          0.837607E-03
      0.140000          0.810952E-03
      0.145000          0.781558E-03
      0.150000          0.749765E-03
      0.155000          0.716403E-03
      0.160000          0.682491E-03
      0.165000          0.649015E-03
      0.170000          0.616777E-03
      0.175000          0.586324E-03
      0.180000          0.557944E-03
      0.185000          0.531692E-03
      0.190000          0.507465E-03
      0.195000          0.485063E-03
      0.200000          0.464266E-03
      0.205000          0.444874E-03
      0.210000          0.426747E-03
      0.215000          0.409801E-03
      0.220000          0.394007E-03
      0.225000          0.379364E-03
      0.230000          0.365871E-03
      0.235000          0.353504E-03
      0.240000          0.342194E-03
      0.245000          0.331826E-03
      0.250000          0.322242E-03
      0.255000          0.313256E-03
      0.260000          0.304678E-03
      0.265000          0.296340E-03
      0.270000          0.288122E-03
      0.275000          0.279968E-03
      0.280000          0.271895E-03
      0.285000          0.263993E-03
      0.290000          0.256409E-03
      0.295000          0.249327E-03
      0.300000          0.242941E-03
      0.305000          0.237422E-03
      0.310000          0.232895E-03
      0.315000          0.229416E-03
      0.320000          0.226956E-03
      0.325000          0.225400E-03
      0.330000          0.224554E-03
      0.335000          0.224160E-03
      0.340000          0.223921E-03
      0.345000          0.223529E-03
      0.350000          0.222691E-03
      0.355000          0.221160E-03
      0.360000          0.218750E-03
      0.365000          0.215355E-03
      0.370000          0.210956E-03
      0.375000          0.205614E-03
      0.380000          0.199463E-03
      0.385000          0.192693E-03
      0.390000          0.185533E-03
      0.395000          0.178225E-03
      0.400000          0.171004E-03
      0.405000          0.164082E-03
      0.410000          0.157630E-03
      0.415000          0.151771E-03
      0.420000          0.146574E-03
      0.425000          0.142057E-03
      0.430000          0.138192E-03
      0.435000          0.134910E-03
      0.440000          0.132119E-03
      0.445000          0.129711E-03
      0.450000          0.127575E-03
      0.455000          0.125605E-03
      0.460000          0.123712E-03
      0.465000          0.121827E-03
      0.470000          0.119903E-03
      0.475000          0.117916E-03
      0.480000          0.115863E-03
      0.485000          0.113760E-03
      0.490000          0.111634E-03
      0.495000          0.109520E-03
      0.500000          0.107457E-03
