 I_abs(s)[cm^-1]/c[mg/ml]
       0.00000          0.145825E-01
      0.500000E-02      0.145266E-01
      0.100000E-01      0.143603E-01
      0.150000E-01      0.140871E-01
      0.200000E-01      0.137131E-01
      0.250000E-01      0.132462E-01
      0.300000E-01      0.126964E-01
      0.350000E-01      0.120750E-01
      0.400000E-01      0.113946E-01
      0.450000E-01      0.106685E-01
      0.500000E-01      0.991034E-02
      0.550000E-01      0.913377E-02
      0.600000E-01      0.835198E-02
      0.650000E-01      0.757738E-02
      0.700000E-01      0.682130E-02
      0.750000E-01      0.609375E-02
      0.800000E-01      0.540323E-02
      0.850000E-01      0.475660E-02
      0.900000E-01      0.415900E-02
      0.950000E-01      0.361390E-02
      0.100000          0.312312E-02
      0.105000          0.268697E-02
      0.110000          0.230441E-02
      0.115000          0.197321E-02
      0.120000          0.169022E-02
      0.125000          0.145153E-02
      0.130000          0.125275E-02
      0.135000          0.108919E-02
      0.140000          0.956070E-03
      0.145000          0.848726E-03
      0.150000          0.762717E-03
      0.155000          0.693964E-03
      0.160000          0.638831E-03
      0.165000          0.594175E-03
      0.170000          0.557372E-03
      0.175000          0.526307E-03
      0.180000          0.499348E-03
      0.185000          0.475301E-03
      0.190000          0.453348E-03
      0.195000          0.432985E-03
      0.200000          0.413949E-03
      0.205000          0.396150E-03
      0.210000          0.379610E-03
      0.215000          0.364409E-03
      0.220000          0.350636E-03
      0.225000          0.338354E-03
      0.230000          0.327583E-03
      0.235000          0.318278E-03
      0.240000          0.310334E-03
      0.245000          0.303582E-03
      0.250000          0.297806E-03
      0.255000          0.292753E-03
      0.260000          0.288156E-03
      0.265000          0.283742E-03
      0.270000          0.279259E-03
      0.275000          0.274482E-03
      0.280000          0.269232E-03
      0.285000          0.263375E-03
      0.290000          0.256833E-03
      0.295000          0.249583E-03
      0.300000          0.241650E-03
      0.305000          0.233106E-03
      0.310000          0.224059E-03
      0.315000          0.214644E-03
      0.320000          0.205015E-03
      0.325000          0.195333E-03
      0.330000          0.185760E-03
      0.335000          0.176445E-03
      0.340000          0.167525E-03
      0.345000          0.159114E-03
      0.350000          0.151303E-03
      0.355000          0.144157E-03
      0.360000          0.137719E-03
      0.365000          0.132004E-03
      0.370000          0.127008E-03
      0.375000          0.122707E-03
      0.380000          0.119064E-03
      0.385000          0.116029E-03
      0.390000          0.113545E-03
      0.395000          0.111552E-03
      0.400000          0.109984E-03
      0.405000          0.108782E-03
      0.410000          0.107886E-03
      0.415000          0.107240E-03
      0.420000          0.106795E-03
      0.425000          0.106507E-03
      0.430000          0.106336E-03
      0.435000          0.106250E-03
      0.440000          0.106221E-03
      0.445000          0.106225E-03
      0.450000          0.106242E-03
      0.455000          0.106256E-03
      0.460000          0.106255E-03
      0.465000          0.106226E-03
      0.470000          0.106160E-03
      0.475000          0.106049E-03
      0.480000          0.105886E-03
      0.485000          0.105664E-03
      0.490000          0.105376E-03
      0.495000          0.105017E-03
      0.500000          0.104580E-03
