 I_abs(s)[cm^-1]/c[mg/ml]
       0.00000          0.136051E-01
      0.500000E-02      0.135346E-01
      0.100000E-01      0.133259E-01
      0.150000E-01      0.129864E-01
      0.200000E-01      0.125284E-01
      0.250000E-01      0.119680E-01
      0.300000E-01      0.113240E-01
      0.350000E-01      0.106174E-01
      0.400000E-01      0.986966E-02
      0.450000E-01      0.910212E-02
      0.500000E-01      0.833463E-02
      0.550000E-01      0.758482E-02
      0.600000E-01      0.686751E-02
      0.650000E-01      0.619421E-02
      0.700000E-01      0.557300E-02
      0.750000E-01      0.500858E-02
      0.800000E-01      0.450254E-02
      0.850000E-01      0.405380E-02
      0.900000E-01      0.365912E-02
      0.950000E-01      0.331373E-02
      0.100000          0.301190E-02
      0.105000          0.274753E-02
      0.110000          0.251459E-02
      0.115000          0.230753E-02
      0.120000          0.212151E-02
      0.125000          0.195256E-02
      0.130000          0.179760E-02
      0.135000          0.165440E-02
      0.140000          0.152146E-02
      0.145000          0.139785E-02
      0.150000          0.128307E-02
      0.155000          0.117683E-02
      0.160000          0.107897E-02
      0.165000          0.989337E-03
      0.170000          0.907691E-03
      0.175000          0.833708E-03
      0.180000          0.766959E-03
      0.185000          0.706933E-03
      0.190000          0.653068E-03
      0.195000          0.604789E-03
      0.200000          0.561540E-03
      0.205000          0.522808E-03
      0.210000          0.488136E-03
      0.215000          0.457124E-03
      0.220000          0.429421E-03
      0.225000          0.404714E-03
      0.230000          0.382707E-03
      0.235000          0.363109E-03
      0.240000          0.345626E-03
      0.245000          0.329954E-03
      0.250000          0.315786E-03
      0.255000          0.302817E-03
      0.260000          0.290764E-03
      0.265000          0.279375E-03
      0.270000          0.268445E-03
      0.275000          0.257828E-03
      0.280000          0.247439E-03
      0.285000          0.237256E-03
      0.290000          0.227307E-03
      0.295000          0.217664E-03
      0.300000          0.208423E-03
      0.305000          0.199686E-03
      0.310000          0.191548E-03
      0.315000          0.184078E-03
      0.320000          0.177317E-03
      0.325000          0.171267E-03
      0.330000          0.165896E-03
      0.335000          0.161144E-03
      0.340000          0.156928E-03
      0.345000          0.153157E-03
      0.350000          0.149740E-03
      0.355000          0.146598E-03
      0.360000          0.143666E-03
      0.365000          0.140902E-03
      0.370000          0.138285E-03
      0.375000          0.135811E-03
      0.380000          0.133490E-03
      0.385000          0.131339E-03
      0.390000          0.129372E-03
      0.395000          0.127601E-03
      0.400000          0.126025E-03
      0.405000          0.124632E-03
      0.410000          0.123396E-03
      0.415000          0.122284E-03
      0.420000          0.121254E-03
      0.425000          0.120265E-03
      0.430000          0.119278E-03
      0.435000          0.118264E-03
      0.440000          0.117203E-03
      0.445000          0.116090E-03
      0.450000          0.114931E-03
      0.455000          0.113744E-03
      0.460000          0.112553E-03
      0.465000          0.111389E-03
      0.470000          0.110280E-03
      0.475000          0.109251E-03
      0.480000          0.108321E-03
      0.485000          0.107497E-03
      0.490000          0.106779E-03
      0.495000          0.106157E-03
      0.500000          0.105612E-03
