 I_abs(s)[cm^-1]/c[mg/ml]
       0.00000          0.136974E-01
      0.500000E-02      0.136347E-01
      0.100000E-01      0.134486E-01
      0.150000E-01      0.131456E-01
      0.200000E-01      0.127358E-01
      0.250000E-01      0.122329E-01
      0.300000E-01      0.116528E-01
      0.350000E-01      0.110132E-01
      0.400000E-01      0.103324E-01
      0.450000E-01      0.962840E-02
      0.500000E-01      0.891841E-02
      0.550000E-01      0.821770E-02
      0.600000E-01      0.753931E-02
      0.650000E-01      0.689362E-02
      0.700000E-01      0.628825E-02
      0.750000E-01      0.572804E-02
      0.800000E-01      0.521530E-02
      0.850000E-01      0.475010E-02
      0.900000E-01      0.433074E-02
      0.950000E-01      0.395412E-02
      0.100000          0.361631E-02
      0.105000          0.331291E-02
      0.110000          0.303948E-02
      0.115000          0.279180E-02
      0.120000          0.256609E-02
      0.125000          0.235914E-02
      0.130000          0.216835E-02
      0.135000          0.199172E-02
      0.140000          0.182778E-02
      0.145000          0.167546E-02
      0.150000          0.153402E-02
      0.155000          0.140295E-02
      0.160000          0.128184E-02
      0.165000          0.117034E-02
      0.170000          0.106807E-02
      0.175000          0.974649E-03
      0.180000          0.889649E-03
      0.185000          0.812603E-03
      0.190000          0.743021E-03
      0.195000          0.680405E-03
      0.200000          0.624259E-03
      0.205000          0.574102E-03
      0.210000          0.529466E-03
      0.215000          0.489899E-03
      0.220000          0.454960E-03
      0.225000          0.424214E-03
      0.230000          0.397226E-03
      0.235000          0.373558E-03
      0.240000          0.352774E-03
      0.245000          0.334442E-03
      0.250000          0.318146E-03
      0.255000          0.303494E-03
      0.260000          0.290130E-03
      0.265000          0.277749E-03
      0.270000          0.266101E-03
      0.275000          0.254996E-03
      0.280000          0.244309E-03
      0.285000          0.233968E-03
      0.290000          0.223954E-03
      0.295000          0.214284E-03
      0.300000          0.205003E-03
      0.305000          0.196168E-03
      0.310000          0.187837E-03
      0.315000          0.180061E-03
      0.320000          0.172877E-03
      0.325000          0.166301E-03
      0.330000          0.160331E-03
      0.335000          0.154946E-03
      0.340000          0.150110E-03
      0.345000          0.145774E-03
      0.350000          0.141887E-03
      0.355000          0.138391E-03
      0.360000          0.135232E-03
      0.365000          0.132358E-03
      0.370000          0.129724E-03
      0.375000          0.127289E-03
      0.380000          0.125020E-03
      0.385000          0.122888E-03
      0.390000          0.120871E-03
      0.395000          0.118952E-03
      0.400000          0.117120E-03
      0.405000          0.115366E-03
      0.410000          0.113690E-03
      0.415000          0.112094E-03
      0.420000          0.110584E-03
      0.425000          0.109169E-03
      0.430000          0.107858E-03
      0.435000          0.106661E-03
      0.440000          0.105581E-03
      0.445000          0.104619E-03
      0.450000          0.103766E-03
      0.455000          0.103008E-03
      0.460000          0.102322E-03
      0.465000          0.101678E-03
      0.470000          0.101043E-03
      0.475000          0.100381E-03
      0.480000          0.996571E-04
      0.485000          0.988427E-04
      0.490000          0.979163E-04
      0.495000          0.968670E-04
      0.500000          0.956955E-04
