 I_abs(s)[cm^-1]/c[mg/ml]
       0.00000          0.139375E-01
      0.500000E-02      0.138797E-01
      0.100000E-01      0.137077E-01
      0.150000E-01      0.134258E-01
      0.200000E-01      0.130408E-01
      0.250000E-01      0.125619E-01
      0.300000E-01      0.120005E-01
      0.350000E-01      0.113695E-01
      0.400000E-01      0.106829E-01
      0.450000E-01      0.995549E-02
      0.500000E-01      0.920220E-02
      0.550000E-01      0.843768E-02
      0.600000E-01      0.767584E-02
      0.650000E-01      0.692947E-02
      0.700000E-01      0.620992E-02
      0.750000E-01      0.552686E-02
      0.800000E-01      0.488811E-02
      0.850000E-01      0.429956E-02
      0.900000E-01      0.376516E-02
      0.950000E-01      0.328703E-02
      0.100000          0.286553E-02
      0.105000          0.249951E-02
      0.110000          0.218648E-02
      0.115000          0.192288E-02
      0.120000          0.170434E-02
      0.125000          0.152593E-02
      0.130000          0.138241E-02
      0.135000          0.126845E-02
      0.140000          0.117881E-02
      0.145000          0.110856E-02
      0.150000          0.105314E-02
      0.155000          0.100852E-02
      0.160000          0.971207E-03
      0.165000          0.938311E-03
      0.170000          0.907533E-03
      0.175000          0.877144E-03
      0.180000          0.845942E-03
      0.185000          0.813197E-03
      0.190000          0.778587E-03
      0.195000          0.742122E-03
      0.200000          0.704073E-03
      0.205000          0.664899E-03
      0.210000          0.625180E-03
      0.215000          0.585557E-03
      0.220000          0.546675E-03
      0.225000          0.509144E-03
      0.230000          0.473501E-03
      0.235000          0.440188E-03
      0.240000          0.409535E-03
      0.245000          0.381750E-03
      0.250000          0.356927E-03
      0.255000          0.335045E-03
      0.260000          0.315986E-03
      0.265000          0.299548E-03
      0.270000          0.285466E-03
      0.275000          0.273430E-03
      0.280000          0.263105E-03
      0.285000          0.254150E-03
      0.290000          0.246238E-03
      0.295000          0.239065E-03
      0.300000          0.232366E-03
      0.305000          0.225922E-03
      0.310000          0.219564E-03
      0.315000          0.213175E-03
      0.320000          0.206688E-03
      0.325000          0.200083E-03
      0.330000          0.193384E-03
      0.335000          0.186643E-03
      0.340000          0.179943E-03
      0.345000          0.173378E-03
      0.350000          0.167053E-03
      0.355000          0.161073E-03
      0.360000          0.155535E-03
      0.365000          0.150521E-03
      0.370000          0.146098E-03
      0.375000          0.142311E-03
      0.380000          0.139183E-03
      0.385000          0.136714E-03
      0.390000          0.134882E-03
      0.395000          0.133646E-03
      0.400000          0.132946E-03
      0.405000          0.132711E-03
      0.410000          0.132857E-03
      0.415000          0.133295E-03
      0.420000          0.133934E-03
      0.425000          0.134682E-03
      0.430000          0.135455E-03
      0.435000          0.136171E-03
      0.440000          0.136761E-03
      0.445000          0.137167E-03
      0.450000          0.137341E-03
      0.455000          0.137249E-03
      0.460000          0.136871E-03
      0.465000          0.136197E-03
      0.470000          0.135231E-03
      0.475000          0.133986E-03
      0.480000          0.132484E-03
      0.485000          0.130753E-03
      0.490000          0.128829E-03
      0.495000          0.126748E-03
      0.500000          0.124550E-03
