 I_abs(s)[cm^-1]/c[mg/ml]
       0.00000          0.132843E-01
      0.500000E-02      0.131505E-01
      0.100000E-01      0.127575E-01
      0.150000E-01      0.121294E-01
      0.200000E-01      0.113039E-01
      0.250000E-01      0.103288E-01
      0.300000E-01      0.925783E-02
      0.350000E-01      0.814574E-02
      0.400000E-01      0.704420E-02
      0.450000E-01      0.599786E-02
      0.500000E-01      0.504170E-02
      0.550000E-01      0.419938E-02
      0.600000E-01      0.348306E-02
      0.650000E-01      0.289418E-02
      0.700000E-01      0.242532E-02
      0.750000E-01      0.206255E-02
      0.800000E-01      0.178811E-02
      0.850000E-01      0.158292E-02
      0.900000E-01      0.142877E-02
      0.950000E-01      0.130989E-02
      0.100000          0.121393E-02
      0.105000          0.113220E-02
      0.110000          0.105945E-02
      0.115000          0.993220E-03
      0.120000          0.933008E-03
      0.125000          0.879353E-03
      0.130000          0.833086E-03
      0.135000          0.794754E-03
      0.140000          0.764304E-03
      0.145000          0.741006E-03
      0.150000          0.723562E-03
      0.155000          0.710343E-03
      0.160000          0.699667E-03
      0.165000          0.690045E-03
      0.170000          0.680366E-03
      0.175000          0.669971E-03
      0.180000          0.658645E-03
      0.185000          0.646518E-03
      0.190000          0.633932E-03
      0.195000          0.621300E-03
      0.200000          0.608976E-03
      0.205000          0.597183E-03
      0.210000          0.585976E-03
      0.215000          0.575259E-03
      0.220000          0.564834E-03
      0.225000          0.554466E-03
      0.230000          0.543938E-03
      0.235000          0.533101E-03
      0.240000          0.521889E-03
      0.245000          0.510317E-03
      0.250000          0.498456E-03
      0.255000          0.486396E-03
      0.260000          0.474215E-03
      0.265000          0.461952E-03
      0.270000          0.449597E-03
      0.275000          0.437094E-03
      0.280000          0.424366E-03
      0.285000          0.411333E-03
      0.290000          0.397945E-03
      0.295000          0.384200E-03
      0.300000          0.370158E-03
      0.305000          0.355931E-03
      0.310000          0.341680E-03
      0.315000          0.327585E-03
      0.320000          0.313827E-03
      0.325000          0.300563E-03
      0.330000          0.287913E-03
      0.335000          0.275952E-03
      0.340000          0.264717E-03
      0.345000          0.254211E-03
      0.350000          0.244421E-03
      0.355000          0.235329E-03
      0.360000          0.226925E-03
      0.365000          0.219209E-03
      0.370000          0.212192E-03
      0.375000          0.205887E-03
      0.380000          0.200298E-03
      0.385000          0.195410E-03
      0.390000          0.191186E-03
      0.395000          0.187553E-03
      0.400000          0.184416E-03
      0.405000          0.181659E-03
      0.410000          0.179160E-03
      0.415000          0.176801E-03
      0.420000          0.174487E-03
      0.425000          0.172148E-03
      0.430000          0.169746E-03
      0.435000          0.167274E-03
      0.440000          0.164746E-03
      0.445000          0.162193E-03
      0.450000          0.159642E-03
      0.455000          0.157115E-03
      0.460000          0.154619E-03
      0.465000          0.152140E-03
      0.470000          0.149650E-03
      0.475000          0.147109E-03
      0.480000          0.144475E-03
      0.485000          0.141710E-03
      0.490000          0.138791E-03
      0.495000          0.135710E-03
      0.500000          0.132479E-03
