 I_abs(s)[cm^-1]/c[mg/ml]
       0.00000          0.136743E-01
      0.500000E-02      0.136128E-01
      0.100000E-01      0.134302E-01
      0.150000E-01      0.131329E-01
      0.200000E-01      0.127306E-01
      0.250000E-01      0.122364E-01
      0.300000E-01      0.116658E-01
      0.350000E-01      0.110359E-01
      0.400000E-01      0.103646E-01
      0.450000E-01      0.966944E-02
      0.500000E-01      0.896731E-02
      0.550000E-01      0.827329E-02
      0.600000E-01      0.760033E-02
      0.650000E-01      0.695888E-02
      0.700000E-01      0.635668E-02
      0.750000E-01      0.579880E-02
      0.800000E-01      0.528780E-02
      0.850000E-01      0.482401E-02
      0.900000E-01      0.440594E-02
      0.950000E-01      0.403068E-02
      0.100000          0.369439E-02
      0.105000          0.339269E-02
      0.110000          0.312109E-02
      0.115000          0.287522E-02
      0.120000          0.265114E-02
      0.125000          0.244542E-02
      0.130000          0.225527E-02
      0.135000          0.207849E-02
      0.140000          0.191344E-02
      0.145000          0.175898E-02
      0.150000          0.161434E-02
      0.155000          0.147903E-02
      0.160000          0.135275E-02
      0.165000          0.123529E-02
      0.170000          0.112648E-02
      0.175000          0.102616E-02
      0.180000          0.934108E-03
      0.185000          0.850086E-03
      0.190000          0.773794E-03
      0.195000          0.704897E-03
      0.200000          0.643021E-03
      0.205000          0.587761E-03
      0.210000          0.538683E-03
      0.215000          0.495331E-03
      0.220000          0.457222E-03
      0.225000          0.423852E-03
      0.230000          0.394699E-03
      0.235000          0.369227E-03
      0.240000          0.346900E-03
      0.245000          0.327195E-03
      0.250000          0.309612E-03
      0.255000          0.293698E-03
      0.260000          0.279056E-03
      0.265000          0.265360E-03
      0.270000          0.252364E-03
      0.275000          0.239901E-03
      0.280000          0.227882E-03
      0.285000          0.216289E-03
      0.290000          0.205155E-03
      0.295000          0.194554E-03
      0.300000          0.184576E-03
      0.305000          0.175316E-03
      0.310000          0.166853E-03
      0.315000          0.159241E-03
      0.320000          0.152500E-03
      0.325000          0.146614E-03
      0.330000          0.141536E-03
      0.335000          0.137190E-03
      0.340000          0.133478E-03
      0.345000          0.130297E-03
      0.350000          0.127540E-03
      0.355000          0.125111E-03
      0.360000          0.122928E-03
      0.365000          0.120925E-03
      0.370000          0.119058E-03
      0.375000          0.117299E-03
      0.380000          0.115637E-03
      0.385000          0.114070E-03
      0.390000          0.112603E-03
      0.395000          0.111242E-03
      0.400000          0.109996E-03
      0.405000          0.108869E-03
      0.410000          0.107863E-03
      0.415000          0.106977E-03
      0.420000          0.106210E-03
      0.425000          0.105562E-03
      0.430000          0.105034E-03
      0.435000          0.104629E-03
      0.440000          0.104353E-03
      0.445000          0.104212E-03
      0.450000          0.104211E-03
      0.455000          0.104351E-03
      0.460000          0.104626E-03
      0.465000          0.105023E-03
      0.470000          0.105516E-03
      0.475000          0.106072E-03
      0.480000          0.106646E-03
      0.485000          0.107188E-03
      0.490000          0.107646E-03
      0.495000          0.107967E-03
      0.500000          0.108107E-03
