 I_abs(s)[cm^-1]/c[mg/ml]
       0.00000          0.139142E-01
      0.500000E-02      0.138458E-01
      0.100000E-01      0.136433E-01
      0.150000E-01      0.133139E-01
      0.200000E-01      0.128692E-01
      0.250000E-01      0.123244E-01
      0.300000E-01      0.116976E-01
      0.350000E-01      0.110087E-01
      0.400000E-01      0.102780E-01
      0.450000E-01      0.952570E-02
      0.500000E-01      0.877053E-02
      0.550000E-01      0.802919E-02
      0.600000E-01      0.731564E-02
      0.650000E-01      0.664079E-02
      0.700000E-01      0.601238E-02
      0.750000E-01      0.543506E-02
      0.800000E-01      0.491065E-02
      0.850000E-01      0.443857E-02
      0.900000E-01      0.401638E-02
      0.950000E-01      0.364029E-02
      0.100000          0.330571E-02
      0.105000          0.300775E-02
      0.110000          0.274161E-02
      0.115000          0.250290E-02
      0.120000          0.228783E-02
      0.125000          0.209324E-02
      0.130000          0.191670E-02
      0.135000          0.175633E-02
      0.140000          0.161077E-02
      0.145000          0.147895E-02
      0.150000          0.136004E-02
      0.155000          0.125325E-02
      0.160000          0.115777E-02
      0.165000          0.107272E-02
      0.170000          0.997125E-03
      0.175000          0.929905E-03
      0.180000          0.869940E-03
      0.185000          0.816108E-03
      0.190000          0.767335E-03
      0.195000          0.722656E-03
      0.200000          0.681245E-03
      0.205000          0.642439E-03
      0.210000          0.605751E-03
      0.215000          0.570853E-03
      0.220000          0.537555E-03
      0.225000          0.505777E-03
      0.230000          0.475514E-03
      0.235000          0.446799E-03
      0.240000          0.419675E-03
      0.245000          0.394176E-03
      0.250000          0.370311E-03
      0.255000          0.348058E-03
      0.260000          0.327365E-03
      0.265000          0.308158E-03
      0.270000          0.290348E-03
      0.275000          0.273844E-03
      0.280000          0.258554E-03
      0.285000          0.244398E-03
      0.290000          0.231307E-03
      0.295000          0.219220E-03
      0.300000          0.208088E-03
      0.305000          0.197862E-03
      0.310000          0.188495E-03
      0.315000          0.179934E-03
      0.320000          0.172121E-03
      0.325000          0.164991E-03
      0.330000          0.158477E-03
      0.335000          0.152511E-03
      0.340000          0.147031E-03
      0.345000          0.141983E-03
      0.350000          0.137328E-03
      0.355000          0.133043E-03
      0.360000          0.129120E-03
      0.365000          0.125568E-03
      0.370000          0.122401E-03
      0.375000          0.119643E-03
      0.380000          0.117313E-03
      0.385000          0.115420E-03
      0.390000          0.113962E-03
      0.395000          0.112916E-03
      0.400000          0.112243E-03
      0.405000          0.111883E-03
      0.410000          0.111760E-03
      0.415000          0.111792E-03
      0.420000          0.111889E-03
      0.425000          0.111970E-03
      0.430000          0.111962E-03
      0.435000          0.111809E-03
      0.440000          0.111476E-03
      0.445000          0.110951E-03
      0.450000          0.110243E-03
      0.455000          0.109379E-03
      0.460000          0.108402E-03
      0.465000          0.107361E-03
      0.470000          0.106307E-03
      0.475000          0.105291E-03
      0.480000          0.104350E-03
      0.485000          0.103511E-03
      0.490000          0.102789E-03
      0.495000          0.102183E-03
      0.500000          0.101680E-03
