 I_abs(s)[cm^-1]/c[mg/ml]
       0.00000          0.136281E-01
      0.500000E-02      0.135547E-01
      0.100000E-01      0.133370E-01
      0.150000E-01      0.129830E-01
      0.200000E-01      0.125056E-01
      0.250000E-01      0.119217E-01
      0.300000E-01      0.112512E-01
      0.350000E-01      0.105161E-01
      0.400000E-01      0.973936E-02
      0.450000E-01      0.894352E-02
      0.500000E-01      0.814975E-02
      0.550000E-01      0.737694E-02
      0.600000E-01      0.664094E-02
      0.650000E-01      0.595413E-02
      0.700000E-01      0.532517E-02
      0.750000E-01      0.475904E-02
      0.800000E-01      0.425728E-02
      0.850000E-01      0.381845E-02
      0.900000E-01      0.343866E-02
      0.950000E-01      0.311226E-02
      0.100000          0.283248E-02
      0.105000          0.259205E-02
      0.110000          0.238381E-02
      0.115000          0.220114E-02
      0.120000          0.203827E-02
      0.125000          0.189051E-02
      0.130000          0.175433E-02
      0.135000          0.162725E-02
      0.140000          0.150779E-02
      0.145000          0.139526E-02
      0.150000          0.128950E-02
      0.155000          0.119070E-02
      0.160000          0.109918E-02
      0.165000          0.101526E-02
      0.170000          0.939052E-03
      0.175000          0.870494E-03
      0.180000          0.809262E-03
      0.185000          0.754817E-03
      0.190000          0.706446E-03
      0.195000          0.663337E-03
      0.200000          0.624646E-03
      0.205000          0.589568E-03
      0.210000          0.557393E-03
      0.215000          0.527537E-03
      0.220000          0.499563E-03
      0.225000          0.473173E-03
      0.230000          0.448191E-03
      0.235000          0.424534E-03
      0.240000          0.402175E-03
      0.245000          0.381110E-03
      0.250000          0.361333E-03
      0.255000          0.342814E-03
      0.260000          0.325489E-03
      0.265000          0.309263E-03
      0.270000          0.294018E-03
      0.275000          0.279629E-03
      0.280000          0.265979E-03
      0.285000          0.252978E-03
      0.290000          0.240570E-03
      0.295000          0.228748E-03
      0.300000          0.217544E-03
      0.305000          0.207033E-03
      0.310000          0.197311E-03
      0.315000          0.188485E-03
      0.320000          0.180652E-03
      0.325000          0.173887E-03
      0.330000          0.168224E-03
      0.335000          0.163652E-03
      0.340000          0.160109E-03
      0.345000          0.157488E-03
      0.350000          0.155641E-03
      0.355000          0.154397E-03
      0.360000          0.153571E-03
      0.365000          0.152983E-03
      0.370000          0.152471E-03
      0.375000          0.151904E-03
      0.380000          0.151186E-03
      0.385000          0.150260E-03
      0.390000          0.149111E-03
      0.395000          0.147754E-03
      0.400000          0.146230E-03
      0.405000          0.144594E-03
      0.410000          0.142907E-03
      0.415000          0.141223E-03
      0.420000          0.139587E-03
      0.425000          0.138022E-03
      0.430000          0.136537E-03
      0.435000          0.135120E-03
      0.440000          0.133745E-03
      0.445000          0.132376E-03
      0.450000          0.130974E-03
      0.455000          0.129503E-03
      0.460000          0.127934E-03
      0.465000          0.126248E-03
      0.470000          0.124440E-03
      0.475000          0.122519E-03
      0.480000          0.120504E-03
      0.485000          0.118422E-03
      0.490000          0.116305E-03
      0.495000          0.114185E-03
      0.500000          0.112089E-03
