 I_abs(s)[cm^-1]/c[mg/ml]
       0.00000          0.135667E-01
      0.500000E-02      0.135001E-01
      0.100000E-01      0.133026E-01
      0.150000E-01      0.129803E-01
      0.200000E-01      0.125435E-01
      0.250000E-01      0.120056E-01
      0.300000E-01      0.113829E-01
      0.350000E-01      0.106933E-01
      0.400000E-01      0.995613E-02
      0.450000E-01      0.919067E-02
      0.500000E-01      0.841570E-02
      0.550000E-01      0.764863E-02
      0.600000E-01      0.690491E-02
      0.650000E-01      0.619753E-02
      0.700000E-01      0.553673E-02
      0.750000E-01      0.492986E-02
      0.800000E-01      0.438138E-02
      0.850000E-01      0.389306E-02
      0.900000E-01      0.346425E-02
      0.950000E-01      0.309227E-02
      0.100000          0.277287E-02
      0.105000          0.250069E-02
      0.110000          0.226971E-02
      0.115000          0.207369E-02
      0.120000          0.190656E-02
      0.125000          0.176265E-02
      0.130000          0.163698E-02
      0.135000          0.152535E-02
      0.140000          0.142440E-02
      0.145000          0.133159E-02
      0.150000          0.124514E-02
      0.155000          0.116393E-02
      0.160000          0.108733E-02
      0.165000          0.101512E-02
      0.170000          0.947291E-03
      0.175000          0.883962E-03
      0.180000          0.825267E-03
      0.185000          0.771288E-03
      0.190000          0.722002E-03
      0.195000          0.677267E-03
      0.200000          0.636816E-03
      0.205000          0.600279E-03
      0.210000          0.567211E-03
      0.215000          0.537124E-03
      0.220000          0.509527E-03
      0.225000          0.483954E-03
      0.230000          0.459995E-03
      0.235000          0.437309E-03
      0.240000          0.415637E-03
      0.245000          0.394802E-03
      0.250000          0.374706E-03
      0.255000          0.355316E-03
      0.260000          0.336653E-03
      0.265000          0.318770E-03
      0.270000          0.301744E-03
      0.275000          0.285653E-03
      0.280000          0.270570E-03
      0.285000          0.256551E-03
      0.290000          0.243628E-03
      0.295000          0.231808E-03
      0.300000          0.221073E-03
      0.305000          0.211383E-03
      0.310000          0.202676E-03
      0.315000          0.194877E-03
      0.320000          0.187903E-03
      0.325000          0.181665E-03
      0.330000          0.176079E-03
      0.335000          0.171061E-03
      0.340000          0.166537E-03
      0.345000          0.162440E-03
      0.350000          0.158716E-03
      0.355000          0.155317E-03
      0.360000          0.152204E-03
      0.365000          0.149346E-03
      0.370000          0.146716E-03
      0.375000          0.144289E-03
      0.380000          0.142044E-03
      0.385000          0.139958E-03
      0.390000          0.138008E-03
      0.395000          0.136170E-03
      0.400000          0.134418E-03
      0.405000          0.132727E-03
      0.410000          0.131072E-03
      0.415000          0.129429E-03
      0.420000          0.127780E-03
      0.425000          0.126107E-03
      0.430000          0.124400E-03
      0.435000          0.122656E-03
      0.440000          0.120876E-03
      0.445000          0.119067E-03
      0.450000          0.117242E-03
      0.455000          0.115417E-03
      0.460000          0.113611E-03
      0.465000          0.111843E-03
      0.470000          0.110131E-03
      0.475000          0.108491E-03
      0.480000          0.106935E-03
      0.485000          0.105468E-03
      0.490000          0.104093E-03
      0.495000          0.102808E-03
      0.500000          0.101603E-03
