 I_abs(s)[cm^-1]/c[mg/ml]
       0.00000          0.141326E-01
      0.500000E-02      0.140731E-01
      0.100000E-01      0.138963E-01
      0.150000E-01      0.136078E-01
      0.200000E-01      0.132162E-01
      0.250000E-01      0.127332E-01
      0.300000E-01      0.121726E-01
      0.350000E-01      0.115498E-01
      0.400000E-01      0.108811E-01
      0.450000E-01      0.101826E-01
      0.500000E-01      0.947013E-02
      0.550000E-01      0.875801E-02
      0.600000E-01      0.805898E-02
      0.650000E-01      0.738370E-02
      0.700000E-01      0.674058E-02
      0.750000E-01      0.613574E-02
      0.800000E-01      0.557306E-02
      0.850000E-01      0.505447E-02
      0.900000E-01      0.458013E-02
      0.950000E-01      0.414885E-02
      0.100000          0.375840E-02
      0.105000          0.340586E-02
      0.110000          0.308797E-02
      0.115000          0.280138E-02
      0.120000          0.254283E-02
      0.125000          0.230932E-02
      0.130000          0.209818E-02
      0.135000          0.190708E-02
      0.140000          0.173404E-02
      0.145000          0.157736E-02
      0.150000          0.143557E-02
      0.155000          0.130737E-02
      0.160000          0.119157E-02
      0.165000          0.108704E-02
      0.170000          0.992704E-03
      0.175000          0.907540E-03
      0.180000          0.830561E-03
      0.185000          0.760856E-03
      0.190000          0.697600E-03
      0.195000          0.640082E-03
      0.200000          0.587712E-03
      0.205000          0.540027E-03
      0.210000          0.496684E-03
      0.215000          0.457441E-03
      0.220000          0.422130E-03
      0.225000          0.390624E-03
      0.230000          0.362805E-03
      0.235000          0.338528E-03
      0.240000          0.317603E-03
      0.245000          0.299773E-03
      0.250000          0.284715E-03
      0.255000          0.272039E-03
      0.260000          0.261312E-03
      0.265000          0.252074E-03
      0.270000          0.243869E-03
      0.275000          0.236272E-03
      0.280000          0.228916E-03
      0.285000          0.221512E-03
      0.290000          0.213863E-03
      0.295000          0.205868E-03
      0.300000          0.197519E-03
      0.305000          0.188892E-03
      0.310000          0.180125E-03
      0.315000          0.171400E-03
      0.320000          0.162917E-03
      0.325000          0.154877E-03
      0.330000          0.147456E-03
      0.335000          0.140796E-03
      0.340000          0.134989E-03
      0.345000          0.130080E-03
      0.350000          0.126063E-03
      0.355000          0.122891E-03
      0.360000          0.120481E-03
      0.365000          0.118727E-03
      0.370000          0.117514E-03
      0.375000          0.116722E-03
      0.380000          0.116241E-03
      0.385000          0.115974E-03
      0.390000          0.115841E-03
      0.395000          0.115780E-03
      0.400000          0.115748E-03
      0.405000          0.115714E-03
      0.410000          0.115659E-03
      0.415000          0.115573E-03
      0.420000          0.115448E-03
      0.425000          0.115278E-03
      0.430000          0.115058E-03
      0.435000          0.114781E-03
      0.440000          0.114442E-03
      0.445000          0.114036E-03
      0.450000          0.113560E-03
      0.455000          0.113018E-03
      0.460000          0.112414E-03
      0.465000          0.111762E-03
      0.470000          0.111077E-03
      0.475000          0.110381E-03
      0.480000          0.109693E-03
      0.485000          0.109036E-03
      0.490000          0.108427E-03
      0.495000          0.107878E-03
      0.500000          0.107396E-03
