 I_abs(s)[cm^-1]/c[mg/ml]
       0.00000          0.140622E-01
      0.500000E-02      0.139943E-01
      0.100000E-01      0.137928E-01
      0.150000E-01      0.134642E-01
      0.200000E-01      0.130192E-01
      0.250000E-01      0.124714E-01
      0.300000E-01      0.118376E-01
      0.350000E-01      0.111360E-01
      0.400000E-01      0.103858E-01
      0.450000E-01      0.960612E-02
      0.500000E-01      0.881532E-02
      0.550000E-01      0.803015E-02
      0.600000E-01      0.726530E-02
      0.650000E-01      0.653296E-02
      0.700000E-01      0.584270E-02
      0.750000E-01      0.520140E-02
      0.800000E-01      0.461341E-02
      0.850000E-01      0.408080E-02
      0.900000E-01      0.360366E-02
      0.950000E-01      0.318053E-02
      0.100000          0.280874E-02
      0.105000          0.248478E-02
      0.110000          0.220465E-02
      0.115000          0.196410E-02
      0.120000          0.175883E-02
      0.125000          0.158468E-02
      0.130000          0.143765E-02
      0.135000          0.131404E-02
      0.140000          0.121039E-02
      0.145000          0.112353E-02
      0.150000          0.105059E-02
      0.155000          0.988953E-03
      0.160000          0.936272E-03
      0.165000          0.890486E-03
      0.170000          0.849813E-03
      0.175000          0.812757E-03
      0.180000          0.778111E-03
      0.185000          0.744952E-03
      0.190000          0.712625E-03
      0.195000          0.680723E-03
      0.200000          0.649048E-03
      0.205000          0.617578E-03
      0.210000          0.586417E-03
      0.215000          0.555752E-03
      0.220000          0.525815E-03
      0.225000          0.496843E-03
      0.230000          0.469051E-03
      0.235000          0.442616E-03
      0.240000          0.417664E-03
      0.245000          0.394271E-03
      0.250000          0.372465E-03
      0.255000          0.352236E-03
      0.260000          0.333545E-03
      0.265000          0.316333E-03
      0.270000          0.300533E-03
      0.275000          0.286072E-03
      0.280000          0.272879E-03
      0.285000          0.260880E-03
      0.290000          0.250004E-03
      0.295000          0.240179E-03
      0.300000          0.231326E-03
      0.305000          0.223367E-03
      0.310000          0.216215E-03
      0.315000          0.209780E-03
      0.320000          0.203972E-03
      0.325000          0.198701E-03
      0.330000          0.193882E-03
      0.335000          0.189436E-03
      0.340000          0.185297E-03
      0.345000          0.181407E-03
      0.350000          0.177723E-03
      0.355000          0.174214E-03
      0.360000          0.170856E-03
      0.365000          0.167638E-03
      0.370000          0.164552E-03
      0.375000          0.161594E-03
      0.380000          0.158763E-03
      0.385000          0.156054E-03
      0.390000          0.153465E-03
      0.395000          0.150991E-03
      0.400000          0.148623E-03
      0.405000          0.146353E-03
      0.410000          0.144172E-03
      0.415000          0.142069E-03
      0.420000          0.140035E-03
      0.425000          0.138061E-03
      0.430000          0.136138E-03
      0.435000          0.134258E-03
      0.440000          0.132412E-03
      0.445000          0.130593E-03
      0.450000          0.128792E-03
      0.455000          0.126997E-03
      0.460000          0.125199E-03
      0.465000          0.123383E-03
      0.470000          0.121539E-03
      0.475000          0.119653E-03
      0.480000          0.117715E-03
      0.485000          0.115716E-03
      0.490000          0.113650E-03
      0.495000          0.111515E-03
      0.500000          0.109316E-03
