 I_abs(s)[cm^-1]/c[mg/ml]
       0.00000          0.138909E-01
      0.500000E-02      0.138298E-01
      0.100000E-01      0.136485E-01
      0.150000E-01      0.133530E-01
      0.200000E-01      0.129526E-01
      0.250000E-01      0.124598E-01
      0.300000E-01      0.118895E-01
      0.350000E-01      0.112582E-01
      0.400000E-01      0.105830E-01
      0.450000E-01      0.988129E-02
      0.500000E-01      0.916937E-02
      0.550000E-01      0.846228E-02
      0.600000E-01      0.777303E-02
      0.650000E-01      0.711234E-02
      0.700000E-01      0.648839E-02
      0.750000E-01      0.590684E-02
      0.800000E-01      0.537097E-02
      0.850000E-01      0.488186E-02
      0.900000E-01      0.443878E-02
      0.950000E-01      0.403957E-02
      0.100000          0.368103E-02
      0.105000          0.335935E-02
      0.110000          0.307042E-02
      0.115000          0.281016E-02
      0.120000          0.257476E-02
      0.125000          0.236078E-02
      0.130000          0.216532E-02
      0.135000          0.198594E-02
      0.140000          0.182073E-02
      0.145000          0.166821E-02
      0.150000          0.152723E-02
      0.155000          0.139694E-02
      0.160000          0.127668E-02
      0.165000          0.116588E-02
      0.170000          0.106409E-02
      0.175000          0.970847E-03
      0.180000          0.885728E-03
      0.185000          0.808298E-03
      0.190000          0.738128E-03
      0.195000          0.674786E-03
      0.200000          0.617850E-03
      0.205000          0.566903E-03
      0.210000          0.521532E-03
      0.215000          0.481328E-03
      0.220000          0.445879E-03
      0.225000          0.414761E-03
      0.230000          0.387536E-03
      0.235000          0.363752E-03
      0.240000          0.342940E-03
      0.245000          0.324629E-03
      0.250000          0.308353E-03
      0.255000          0.293665E-03
      0.260000          0.280156E-03
      0.265000          0.267471E-03
      0.270000          0.255320E-03
      0.275000          0.243488E-03
      0.280000          0.231843E-03
      0.285000          0.220327E-03
      0.290000          0.208957E-03
      0.295000          0.197805E-03
      0.300000          0.186985E-03
      0.305000          0.176637E-03
      0.310000          0.166903E-03
      0.315000          0.157916E-03
      0.320000          0.149783E-03
      0.325000          0.142573E-03
      0.330000          0.136319E-03
      0.335000          0.131010E-03
      0.340000          0.126600E-03
      0.345000          0.123011E-03
      0.350000          0.120145E-03
      0.355000          0.117894E-03
      0.360000          0.116144E-03
      0.365000          0.114793E-03
      0.370000          0.113748E-03
      0.375000          0.112933E-03
      0.380000          0.112289E-03
      0.385000          0.111776E-03
      0.390000          0.111364E-03
      0.395000          0.111035E-03
      0.400000          0.110777E-03
      0.405000          0.110578E-03
      0.410000          0.110426E-03
      0.415000          0.110305E-03
      0.420000          0.110196E-03
      0.425000          0.110077E-03
      0.430000          0.109924E-03
      0.435000          0.109715E-03
      0.440000          0.109430E-03
      0.445000          0.109055E-03
      0.450000          0.108584E-03
      0.455000          0.108020E-03
      0.460000          0.107371E-03
      0.465000          0.106655E-03
      0.470000          0.105893E-03
      0.475000          0.105111E-03
      0.480000          0.104333E-03
      0.485000          0.103583E-03
      0.490000          0.102878E-03
      0.495000          0.102231E-03
      0.500000          0.101649E-03
