 I_abs(s)[cm^-1]/c[mg/ml]
       0.00000          0.140076E-01
      0.500000E-02      0.139478E-01
      0.100000E-01      0.137703E-01
      0.150000E-01      0.134798E-01
      0.200000E-01      0.130843E-01
      0.250000E-01      0.125941E-01
      0.300000E-01      0.120222E-01
      0.350000E-01      0.113828E-01
      0.400000E-01      0.106915E-01
      0.450000E-01      0.996430E-02
      0.500000E-01      0.921694E-02
      0.550000E-01      0.846461E-02
      0.600000E-01      0.772129E-02
      0.650000E-01      0.699935E-02
      0.700000E-01      0.630928E-02
      0.750000E-01      0.565947E-02
      0.800000E-01      0.505615E-02
      0.850000E-01      0.450339E-02
      0.900000E-01      0.400323E-02
      0.950000E-01      0.355587E-02
      0.100000          0.315991E-02
      0.105000          0.281268E-02
      0.110000          0.251052E-02
      0.115000          0.224910E-02
      0.120000          0.202376E-02
      0.125000          0.182969E-02
      0.130000          0.166225E-02
      0.135000          0.151709E-02
      0.140000          0.139031E-02
      0.145000          0.127851E-02
      0.150000          0.117886E-02
      0.155000          0.108908E-02
      0.160000          0.100742E-02
      0.165000          0.932569E-03
      0.170000          0.863632E-03
      0.175000          0.800011E-03
      0.180000          0.741343E-03
      0.185000          0.687418E-03
      0.190000          0.638116E-03
      0.195000          0.593349E-03
      0.200000          0.553022E-03
      0.205000          0.517001E-03
      0.210000          0.485099E-03
      0.215000          0.457067E-03
      0.220000          0.432601E-03
      0.225000          0.411347E-03
      0.230000          0.392919E-03
      0.235000          0.376913E-03
      0.240000          0.362921E-03
      0.245000          0.350554E-03
      0.250000          0.339449E-03
      0.255000          0.329282E-03
      0.260000          0.319775E-03
      0.265000          0.310701E-03
      0.270000          0.301887E-03
      0.275000          0.293206E-03
      0.280000          0.284581E-03
      0.285000          0.275972E-03
      0.290000          0.267375E-03
      0.295000          0.258810E-03
      0.300000          0.250314E-03
      0.305000          0.241939E-03
      0.310000          0.233737E-03
      0.315000          0.225762E-03
      0.320000          0.218061E-03
      0.325000          0.210673E-03
      0.330000          0.203628E-03
      0.335000          0.196943E-03
      0.340000          0.190625E-03
      0.345000          0.184672E-03
      0.350000          0.179072E-03
      0.355000          0.173809E-03
      0.360000          0.168859E-03
      0.365000          0.164201E-03
      0.370000          0.159808E-03
      0.375000          0.155658E-03
      0.380000          0.151730E-03
      0.385000          0.148008E-03
      0.390000          0.144478E-03
      0.395000          0.141131E-03
      0.400000          0.137961E-03
      0.405000          0.134967E-03
      0.410000          0.132149E-03
      0.415000          0.129510E-03
      0.420000          0.127054E-03
      0.425000          0.124785E-03
      0.430000          0.122707E-03
      0.435000          0.120821E-03
      0.440000          0.119129E-03
      0.445000          0.117629E-03
      0.450000          0.116314E-03
      0.455000          0.115178E-03
      0.460000          0.114209E-03
      0.465000          0.113392E-03
      0.470000          0.112709E-03
      0.475000          0.112141E-03
      0.480000          0.111666E-03
      0.485000          0.111257E-03
      0.490000          0.110892E-03
      0.495000          0.110544E-03
      0.500000          0.110189E-03
