 I_abs(s)[cm^-1]/c[mg/ml]
       0.00000          0.137592E-01
      0.500000E-02      0.136816E-01
      0.100000E-01      0.134521E-01
      0.150000E-01      0.130801E-01
      0.200000E-01      0.125806E-01
      0.250000E-01      0.119732E-01
      0.300000E-01      0.112809E-01
      0.350000E-01      0.105284E-01
      0.400000E-01      0.974085E-02
      0.450000E-01      0.894225E-02
      0.500000E-01      0.815437E-02
      0.550000E-01      0.739567E-02
      0.600000E-01      0.668063E-02
      0.650000E-01      0.601949E-02
      0.700000E-01      0.541822E-02
      0.750000E-01      0.487891E-02
      0.800000E-01      0.440028E-02
      0.850000E-01      0.397847E-02
      0.900000E-01      0.360780E-02
      0.950000E-01      0.328162E-02
      0.100000          0.299302E-02
      0.105000          0.273548E-02
      0.110000          0.250325E-02
      0.115000          0.229165E-02
      0.120000          0.209719E-02
      0.125000          0.191744E-02
      0.130000          0.175096E-02
      0.135000          0.159698E-02
      0.140000          0.145519E-02
      0.145000          0.132549E-02
      0.150000          0.120774E-02
      0.155000          0.110166E-02
      0.160000          0.100674E-02
      0.165000          0.922197E-03
      0.170000          0.847048E-03
      0.175000          0.780181E-03
      0.180000          0.720447E-03
      0.185000          0.666759E-03
      0.190000          0.618167E-03
      0.195000          0.573915E-03
      0.200000          0.533452E-03
      0.205000          0.496428E-03
      0.210000          0.462650E-03
      0.215000          0.432031E-03
      0.220000          0.404526E-03
      0.225000          0.380080E-03
      0.230000          0.358576E-03
      0.235000          0.339818E-03
      0.240000          0.323516E-03
      0.245000          0.309306E-03
      0.250000          0.296773E-03
      0.255000          0.285493E-03
      0.260000          0.275066E-03
      0.265000          0.265160E-03
      0.270000          0.255530E-03
      0.275000          0.246036E-03
      0.280000          0.236639E-03
      0.285000          0.227396E-03
      0.290000          0.218426E-03
      0.295000          0.209890E-03
      0.300000          0.201956E-03
      0.305000          0.194772E-03
      0.310000          0.188446E-03
      0.315000          0.183029E-03
      0.320000          0.178513E-03
      0.325000          0.174837E-03
      0.330000          0.171898E-03
      0.335000          0.169566E-03
      0.340000          0.167704E-03
      0.345000          0.166184E-03
      0.350000          0.164898E-03
      0.355000          0.163770E-03
      0.360000          0.162754E-03
      0.365000          0.161837E-03
      0.370000          0.161025E-03
      0.375000          0.160338E-03
      0.380000          0.159798E-03
      0.385000          0.159419E-03
      0.390000          0.159200E-03
      0.395000          0.159121E-03
      0.400000          0.159142E-03
      0.405000          0.159206E-03
      0.410000          0.159248E-03
      0.415000          0.159197E-03
      0.420000          0.158988E-03
      0.425000          0.158569E-03
      0.430000          0.157903E-03
      0.435000          0.156974E-03
      0.440000          0.155786E-03
      0.445000          0.154360E-03
      0.450000          0.152731E-03
      0.455000          0.150941E-03
      0.460000          0.149036E-03
      0.465000          0.147056E-03
      0.470000          0.145033E-03
      0.475000          0.142990E-03
      0.480000          0.140937E-03
      0.485000          0.138873E-03
      0.490000          0.136789E-03
      0.495000          0.134672E-03
      0.500000          0.132506E-03
