 I_abs(s)[cm^-1]/c[mg/ml]
       0.00000          0.139608E-01
      0.500000E-02      0.138962E-01
      0.100000E-01      0.137045E-01
      0.150000E-01      0.133918E-01
      0.200000E-01      0.129680E-01
      0.250000E-01      0.124462E-01
      0.300000E-01      0.118420E-01
      0.350000E-01      0.111728E-01
      0.400000E-01      0.104568E-01
      0.450000E-01      0.971242E-02
      0.500000E-01      0.895721E-02
      0.550000E-01      0.820735E-02
      0.600000E-01      0.747704E-02
      0.650000E-01      0.677808E-02
      0.700000E-01      0.611969E-02
      0.750000E-01      0.550839E-02
      0.800000E-01      0.494812E-02
      0.850000E-01      0.444049E-02
      0.900000E-01      0.398508E-02
      0.950000E-01      0.357982E-02
      0.100000          0.322144E-02
      0.105000          0.290587E-02
      0.110000          0.262859E-02
      0.115000          0.238503E-02
      0.120000          0.217075E-02
      0.125000          0.198167E-02
      0.130000          0.181418E-02
      0.135000          0.166515E-02
      0.140000          0.153199E-02
      0.145000          0.141252E-02
      0.150000          0.130497E-02
      0.155000          0.120785E-02
      0.160000          0.111991E-02
      0.165000          0.104006E-02
      0.170000          0.967329E-03
      0.175000          0.900805E-03
      0.180000          0.839666E-03
      0.185000          0.783159E-03
      0.190000          0.730615E-03
      0.195000          0.681460E-03
      0.200000          0.635234E-03
      0.205000          0.591596E-03
      0.210000          0.550321E-03
      0.215000          0.511292E-03
      0.220000          0.474484E-03
      0.225000          0.439937E-03
      0.230000          0.407726E-03
      0.235000          0.377938E-03
      0.240000          0.350643E-03
      0.245000          0.325873E-03
      0.250000          0.303611E-03
      0.255000          0.283783E-03
      0.260000          0.266260E-03
      0.265000          0.250870E-03
      0.270000          0.237405E-03
      0.275000          0.225640E-03
      0.280000          0.215346E-03
      0.285000          0.206307E-03
      0.290000          0.198328E-03
      0.295000          0.191243E-03
      0.300000          0.184917E-03
      0.305000          0.179246E-03
      0.310000          0.174151E-03
      0.315000          0.169570E-03
      0.320000          0.165456E-03
      0.325000          0.161765E-03
      0.330000          0.158454E-03
      0.335000          0.155475E-03
      0.340000          0.152777E-03
      0.345000          0.150307E-03
      0.350000          0.148007E-03
      0.355000          0.145828E-03
      0.360000          0.143723E-03
      0.365000          0.141662E-03
      0.370000          0.139622E-03
      0.375000          0.137599E-03
      0.380000          0.135599E-03
      0.385000          0.133643E-03
      0.390000          0.131753E-03
      0.395000          0.129959E-03
      0.400000          0.128286E-03
      0.405000          0.126753E-03
      0.410000          0.125368E-03
      0.415000          0.124132E-03
      0.420000          0.123029E-03
      0.425000          0.122038E-03
      0.430000          0.121129E-03
      0.435000          0.120268E-03
      0.440000          0.119424E-03
      0.445000          0.118570E-03
      0.450000          0.117689E-03
      0.455000          0.116774E-03
      0.460000          0.115832E-03
      0.465000          0.114879E-03
      0.470000          0.113944E-03
      0.475000          0.113060E-03
      0.480000          0.112263E-03
      0.485000          0.111586E-03
      0.490000          0.111057E-03
      0.495000          0.110692E-03
      0.500000          0.110496E-03
