 I_abs(s)[cm^-1]/c[mg/ml]
       0.00000          0.144812E-01
      0.500000E-02      0.144260E-01
      0.100000E-01      0.142615E-01
      0.150000E-01      0.139916E-01
      0.200000E-01      0.136224E-01
      0.250000E-01      0.131621E-01
      0.300000E-01      0.126210E-01
      0.350000E-01      0.120107E-01
      0.400000E-01      0.113438E-01
      0.450000E-01      0.106340E-01
      0.500000E-01      0.989487E-02
      0.550000E-01      0.913998E-02
      0.600000E-01      0.838234E-02
      0.650000E-01      0.763403E-02
      0.700000E-01      0.690595E-02
      0.750000E-01      0.620754E-02
      0.800000E-01      0.554662E-02
      0.850000E-01      0.492932E-02
      0.900000E-01      0.436004E-02
      0.950000E-01      0.384147E-02
      0.100000          0.337472E-02
      0.105000          0.295946E-02
      0.110000          0.259409E-02
      0.115000          0.227598E-02
      0.120000          0.200166E-02
      0.125000          0.176711E-02
      0.130000          0.156794E-02
      0.135000          0.139962E-02
      0.140000          0.125765E-02
      0.145000          0.113774E-02
      0.150000          0.103592E-02
      0.155000          0.948629E-03
      0.160000          0.872781E-03
      0.165000          0.805792E-03
      0.170000          0.745575E-03
      0.175000          0.690519E-03
      0.180000          0.639452E-03
      0.185000          0.591576E-03
      0.190000          0.546415E-03
      0.195000          0.503743E-03
      0.200000          0.463518E-03
      0.205000          0.425823E-03
      0.210000          0.390809E-03
      0.215000          0.358651E-03
      0.220000          0.329505E-03
      0.225000          0.303487E-03
      0.230000          0.280648E-03
      0.235000          0.260968E-03
      0.240000          0.244351E-03
      0.245000          0.230631E-03
      0.250000          0.219576E-03
      0.255000          0.210905E-03
      0.260000          0.204295E-03
      0.265000          0.199404E-03
      0.270000          0.195878E-03
      0.275000          0.193369E-03
      0.280000          0.191546E-03
      0.285000          0.190108E-03
      0.290000          0.188790E-03
      0.295000          0.187370E-03
      0.300000          0.185676E-03
      0.305000          0.183582E-03
      0.310000          0.181015E-03
      0.315000          0.177945E-03
      0.320000          0.174387E-03
      0.325000          0.170395E-03
      0.330000          0.166051E-03
      0.335000          0.161460E-03
      0.340000          0.156745E-03
      0.345000          0.152034E-03
      0.350000          0.147452E-03
      0.355000          0.143119E-03
      0.360000          0.139139E-03
      0.365000          0.135595E-03
      0.370000          0.132546E-03
      0.375000          0.130024E-03
      0.380000          0.128035E-03
      0.385000          0.126558E-03
      0.390000          0.125547E-03
      0.395000          0.124935E-03
      0.400000          0.124638E-03
      0.405000          0.124562E-03
      0.410000          0.124605E-03
      0.415000          0.124665E-03
      0.420000          0.124646E-03
      0.425000          0.124459E-03
      0.430000          0.124030E-03
      0.435000          0.123300E-03
      0.440000          0.122229E-03
      0.445000          0.120794E-03
      0.450000          0.118992E-03
      0.455000          0.116837E-03
      0.460000          0.114359E-03
      0.465000          0.111600E-03
      0.470000          0.108611E-03
      0.475000          0.105453E-03
      0.480000          0.102187E-03
      0.485000          0.988782E-04
      0.490000          0.955877E-04
      0.495000          0.923734E-04
      0.500000          0.892872E-04
