 I_abs(s)[cm^-1]/c[mg/ml]
       0.00000          0.144763E-01
      0.500000E-02      0.144125E-01
      0.100000E-01      0.142229E-01
      0.150000E-01      0.139129E-01
      0.200000E-01      0.134908E-01
      0.250000E-01      0.129680E-01
      0.300000E-01      0.123582E-01
      0.350000E-01      0.116766E-01
      0.400000E-01      0.109398E-01
      0.450000E-01      0.101645E-01
      0.500000E-01      0.936710E-02
      0.550000E-01      0.856339E-02
      0.600000E-01      0.776766E-02
      0.650000E-01      0.699256E-02
      0.700000E-01      0.624876E-02
      0.750000E-01      0.554481E-02
      0.800000E-01      0.488717E-02
      0.850000E-01      0.428023E-02
      0.900000E-01      0.372651E-02
      0.950000E-01      0.322686E-02
      0.100000          0.278074E-02
      0.105000          0.238645E-02
      0.110000          0.204146E-02
      0.115000          0.174261E-02
      0.120000          0.148635E-02
      0.125000          0.126892E-02
      0.130000          0.108650E-02
      0.135000          0.935324E-03
      0.140000          0.811744E-03
      0.145000          0.712290E-03
      0.150000          0.633697E-03
      0.155000          0.572930E-03
      0.160000          0.527185E-03
      0.165000          0.493900E-03
      0.170000          0.470754E-03
      0.175000          0.455669E-03
      0.180000          0.446810E-03
      0.185000          0.442584E-03
      0.190000          0.441632E-03
      0.195000          0.442820E-03
      0.200000          0.445225E-03
      0.205000          0.448117E-03
      0.210000          0.450934E-03
      0.215000          0.453256E-03
      0.220000          0.454781E-03
      0.225000          0.455297E-03
      0.230000          0.454657E-03
      0.235000          0.452766E-03
      0.240000          0.449558E-03
      0.245000          0.444995E-03
      0.250000          0.439055E-03
      0.255000          0.431739E-03
      0.260000          0.423068E-03
      0.265000          0.413089E-03
      0.270000          0.401878E-03
      0.275000          0.389543E-03
      0.280000          0.376225E-03
      0.285000          0.362094E-03
      0.290000          0.347344E-03
      0.295000          0.332186E-03
      0.300000          0.316838E-03
      0.305000          0.301515E-03
      0.310000          0.286420E-03
      0.315000          0.271734E-03
      0.320000          0.257612E-03
      0.325000          0.244173E-03
      0.330000          0.231504E-03
      0.335000          0.219656E-03
      0.340000          0.208652E-03
      0.345000          0.198485E-03
      0.350000          0.189131E-03
      0.355000          0.180547E-03
      0.360000          0.172684E-03
      0.365000          0.165486E-03
      0.370000          0.158899E-03
      0.375000          0.152868E-03
      0.380000          0.147346E-03
      0.385000          0.142286E-03
      0.390000          0.137647E-03
      0.395000          0.133393E-03
      0.400000          0.129488E-03
      0.405000          0.125897E-03
      0.410000          0.122588E-03
      0.415000          0.119526E-03
      0.420000          0.116678E-03
      0.425000          0.114013E-03
      0.430000          0.111500E-03
      0.435000          0.109111E-03
      0.440000          0.106821E-03
      0.445000          0.104609E-03
      0.450000          0.102462E-03
      0.455000          0.100367E-03
      0.460000          0.983217E-04
      0.465000          0.963259E-04
      0.470000          0.943851E-04
      0.475000          0.925083E-04
      0.480000          0.907071E-04
      0.485000          0.889951E-04
      0.490000          0.873860E-04
      0.495000          0.858928E-04
      0.500000          0.845271E-04
