 I_abs(s)[cm^-1]/c[mg/ml]
       0.00000          0.141850E-01
      0.500000E-02      0.141179E-01
      0.100000E-01      0.139185E-01
      0.150000E-01      0.135925E-01
      0.200000E-01      0.131492E-01
      0.250000E-01      0.126007E-01
      0.300000E-01      0.119620E-01
      0.350000E-01      0.112499E-01
      0.400000E-01      0.104825E-01
      0.450000E-01      0.967837E-02
      0.500000E-01      0.885585E-02
      0.550000E-01      0.803250E-02
      0.600000E-01      0.722441E-02
      0.650000E-01      0.644576E-02
      0.700000E-01      0.570842E-02
      0.750000E-01      0.502175E-02
      0.800000E-01      0.439251E-02
      0.850000E-01      0.382488E-02
      0.900000E-01      0.332059E-02
      0.950000E-01      0.287920E-02
      0.100000          0.249841E-02
      0.105000          0.217440E-02
      0.110000          0.190223E-02
      0.115000          0.167626E-02
      0.120000          0.149045E-02
      0.125000          0.133877E-02
      0.130000          0.121540E-02
      0.135000          0.111499E-02
      0.140000          0.103278E-02
      0.145000          0.964725E-03
      0.150000          0.907474E-03
      0.155000          0.858392E-03
      0.160000          0.815485E-03
      0.165000          0.777314E-03
      0.170000          0.742894E-03
      0.175000          0.711587E-03
      0.180000          0.682994E-03
      0.185000          0.656863E-03
      0.190000          0.633009E-03
      0.195000          0.611255E-03
      0.200000          0.591392E-03
      0.205000          0.573156E-03
      0.210000          0.556230E-03
      0.215000          0.540246E-03
      0.220000          0.524810E-03
      0.225000          0.509523E-03
      0.230000          0.494013E-03
      0.235000          0.477954E-03
      0.240000          0.461094E-03
      0.245000          0.443269E-03
      0.250000          0.424410E-03
      0.255000          0.404550E-03
      0.260000          0.383813E-03
      0.265000          0.362408E-03
      0.270000          0.340610E-03
      0.275000          0.318744E-03
      0.280000          0.297161E-03
      0.285000          0.276220E-03
      0.290000          0.256262E-03
      0.295000          0.237601E-03
      0.300000          0.220499E-03
      0.305000          0.205162E-03
      0.310000          0.191728E-03
      0.315000          0.180266E-03
      0.320000          0.170775E-03
      0.325000          0.163190E-03
      0.330000          0.157386E-03
      0.335000          0.153190E-03
      0.340000          0.150390E-03
      0.345000          0.148750E-03
      0.350000          0.148020E-03
      0.355000          0.147949E-03
      0.360000          0.148295E-03
      0.365000          0.148839E-03
      0.370000          0.149384E-03
      0.375000          0.149771E-03
      0.380000          0.149873E-03
      0.385000          0.149603E-03
      0.390000          0.148907E-03
      0.395000          0.147765E-03
      0.400000          0.146187E-03
      0.405000          0.144204E-03
      0.410000          0.141863E-03
      0.415000          0.139225E-03
      0.420000          0.136352E-03
      0.425000          0.133307E-03
      0.430000          0.130148E-03
      0.435000          0.126923E-03
      0.440000          0.123673E-03
      0.445000          0.120424E-03
      0.450000          0.117195E-03
      0.455000          0.113993E-03
      0.460000          0.110818E-03
      0.465000          0.107668E-03
      0.470000          0.104536E-03
      0.475000          0.101416E-03
      0.480000          0.983051E-04
      0.485000          0.952056E-04
      0.490000          0.921249E-04
      0.495000          0.890768E-04
      0.500000          0.860812E-04
