 I_abs(s)[cm^-1]/c[mg/ml]
       0.00000          0.143342E-01
      0.500000E-02      0.142767E-01
      0.100000E-01      0.141057E-01
      0.150000E-01      0.138251E-01
      0.200000E-01      0.134415E-01
      0.250000E-01      0.129638E-01
      0.300000E-01      0.124029E-01
      0.350000E-01      0.117711E-01
      0.400000E-01      0.110821E-01
      0.450000E-01      0.103502E-01
      0.500000E-01      0.958981E-02
      0.550000E-01      0.881535E-02
      0.600000E-01      0.804048E-02
      0.650000E-01      0.727786E-02
      0.700000E-01      0.653881E-02
      0.750000E-01      0.583310E-02
      0.800000E-01      0.516873E-02
      0.850000E-01      0.455187E-02
      0.900000E-01      0.398685E-02
      0.950000E-01      0.347616E-02
      0.100000          0.302066E-02
      0.105000          0.261967E-02
      0.110000          0.227121E-02
      0.115000          0.197224E-02
      0.120000          0.171892E-02
      0.125000          0.150680E-02
      0.130000          0.133115E-02
      0.135000          0.118709E-02
      0.140000          0.106984E-02
      0.145000          0.974840E-03
      0.150000          0.897907E-03
      0.155000          0.835288E-03
      0.160000          0.783726E-03
      0.165000          0.740480E-03
      0.170000          0.703311E-03
      0.175000          0.670456E-03
      0.180000          0.640583E-03
      0.185000          0.612728E-03
      0.190000          0.586237E-03
      0.195000          0.560704E-03
      0.200000          0.535907E-03
      0.205000          0.511756E-03
      0.210000          0.488248E-03
      0.215000          0.465427E-03
      0.220000          0.443363E-03
      0.225000          0.422123E-03
      0.230000          0.401768E-03
      0.235000          0.382344E-03
      0.240000          0.363882E-03
      0.245000          0.346398E-03
      0.250000          0.329900E-03
      0.255000          0.314388E-03
      0.260000          0.299863E-03
      0.265000          0.286322E-03
      0.270000          0.273765E-03
      0.275000          0.262191E-03
      0.280000          0.251595E-03
      0.285000          0.241969E-03
      0.290000          0.233295E-03
      0.295000          0.225545E-03
      0.300000          0.218675E-03
      0.305000          0.212628E-03
      0.310000          0.207331E-03
      0.315000          0.202696E-03
      0.320000          0.198622E-03
      0.325000          0.195000E-03
      0.330000          0.191717E-03
      0.335000          0.188659E-03
      0.340000          0.185715E-03
      0.345000          0.182787E-03
      0.350000          0.179787E-03
      0.355000          0.176644E-03
      0.360000          0.173308E-03
      0.365000          0.169744E-03
      0.370000          0.165941E-03
      0.375000          0.161903E-03
      0.380000          0.157654E-03
      0.385000          0.153229E-03
      0.390000          0.148674E-03
      0.395000          0.144045E-03
      0.400000          0.139397E-03
      0.405000          0.134791E-03
      0.410000          0.130281E-03
      0.415000          0.125918E-03
      0.420000          0.121746E-03
      0.425000          0.117802E-03
      0.430000          0.114111E-03
      0.435000          0.110693E-03
      0.440000          0.107555E-03
      0.445000          0.104700E-03
      0.450000          0.102122E-03
      0.455000          0.998094E-04
      0.460000          0.977464E-04
      0.465000          0.959142E-04
      0.470000          0.942919E-04
      0.475000          0.928581E-04
      0.480000          0.915912E-04
      0.485000          0.904706E-04
      0.490000          0.894770E-04
      0.495000          0.885925E-04
      0.500000          0.878013E-04
