 I_abs(s)[cm^-1]/c[mg/ml]
       0.00000          0.143027E-01
      0.500000E-02      0.142392E-01
      0.100000E-01      0.140500E-01
      0.150000E-01      0.137400E-01
      0.200000E-01      0.133167E-01
      0.250000E-01      0.127902E-01
      0.300000E-01      0.121730E-01
      0.350000E-01      0.114796E-01
      0.400000E-01      0.107255E-01
      0.450000E-01      0.992727E-02
      0.500000E-01      0.910179E-02
      0.550000E-01      0.826559E-02
      0.600000E-01      0.743451E-02
      0.650000E-01      0.662319E-02
      0.700000E-01      0.584472E-02
      0.750000E-01      0.511029E-02
      0.800000E-01      0.442900E-02
      0.850000E-01      0.380772E-02
      0.900000E-01      0.325105E-02
      0.950000E-01      0.276137E-02
      0.100000          0.233897E-02
      0.105000          0.198225E-02
      0.110000          0.168793E-02
      0.115000          0.145139E-02
      0.120000          0.126695E-02
      0.125000          0.112819E-02
      0.130000          0.102828E-02
      0.135000          0.960286E-03
      0.140000          0.917401E-03
      0.145000          0.893210E-03
      0.150000          0.881859E-03
      0.155000          0.878200E-03
      0.160000          0.877882E-03
      0.165000          0.877392E-03
      0.170000          0.874061E-03
      0.175000          0.866028E-03
      0.180000          0.852174E-03
      0.185000          0.832035E-03
      0.190000          0.805698E-03
      0.195000          0.773685E-03
      0.200000          0.736844E-03
      0.205000          0.696233E-03
      0.210000          0.653021E-03
      0.215000          0.608402E-03
      0.220000          0.563516E-03
      0.225000          0.519400E-03
      0.230000          0.476940E-03
      0.235000          0.436853E-03
      0.240000          0.399673E-03
      0.245000          0.365756E-03
      0.250000          0.335291E-03
      0.255000          0.308322E-03
      0.260000          0.284767E-03
      0.265000          0.264451E-03
      0.270000          0.247127E-03
      0.275000          0.232506E-03
      0.280000          0.220276E-03
      0.285000          0.210122E-03
      0.290000          0.201742E-03
      0.295000          0.194855E-03
      0.300000          0.189210E-03
      0.305000          0.184587E-03
      0.310000          0.180799E-03
      0.315000          0.177688E-03
      0.320000          0.175124E-03
      0.325000          0.172997E-03
      0.330000          0.171214E-03
      0.335000          0.169696E-03
      0.340000          0.168373E-03
      0.345000          0.167180E-03
      0.350000          0.166057E-03
      0.355000          0.164944E-03
      0.360000          0.163787E-03
      0.365000          0.162534E-03
      0.370000          0.161136E-03
      0.375000          0.159551E-03
      0.380000          0.157743E-03
      0.385000          0.155684E-03
      0.390000          0.153357E-03
      0.395000          0.150752E-03
      0.400000          0.147874E-03
      0.405000          0.144734E-03
      0.410000          0.141354E-03
      0.415000          0.137766E-03
      0.420000          0.134008E-03
      0.425000          0.130123E-03
      0.430000          0.126159E-03
      0.435000          0.122166E-03
      0.440000          0.118194E-03
      0.445000          0.114291E-03
      0.450000          0.110503E-03
      0.455000          0.106871E-03
      0.460000          0.103431E-03
      0.465000          0.100211E-03
      0.470000          0.972356E-04
      0.475000          0.945199E-04
      0.480000          0.920730E-04
      0.485000          0.898972E-04
      0.490000          0.879886E-04
      0.495000          0.863374E-04
      0.500000          0.849291E-04
