 I_abs(s)[cm^-1]/c[mg/ml]
       0.00000          0.143657E-01
      0.500000E-02      0.142759E-01
      0.100000E-01      0.140100E-01
      0.150000E-01      0.135780E-01
      0.200000E-01      0.129961E-01
      0.250000E-01      0.122854E-01
      0.300000E-01      0.114712E-01
      0.350000E-01      0.105811E-01
      0.400000E-01      0.964373E-02
      0.450000E-01      0.868749E-02
      0.500000E-01      0.773885E-02
      0.550000E-01      0.682139E-02
      0.600000E-01      0.595488E-02
      0.650000E-01      0.515471E-02
      0.700000E-01      0.443159E-02
      0.750000E-01      0.379160E-02
      0.800000E-01      0.323651E-02
      0.850000E-01      0.276433E-02
      0.900000E-01      0.237000E-02
      0.950000E-01      0.204617E-02
      0.100000          0.178405E-02
      0.105000          0.157416E-02
      0.110000          0.140703E-02
      0.115000          0.127375E-02
      0.120000          0.116641E-02
      0.125000          0.107832E-02
      0.130000          0.100414E-02
      0.135000          0.939864E-03
      0.140000          0.882685E-03
      0.145000          0.830819E-03
      0.150000          0.783274E-03
      0.155000          0.739616E-03
      0.160000          0.699748E-03
      0.165000          0.663725E-03
      0.170000          0.631615E-03
      0.175000          0.603405E-03
      0.180000          0.578949E-03
      0.185000          0.557964E-03
      0.190000          0.540046E-03
      0.195000          0.524706E-03
      0.200000          0.511419E-03
      0.205000          0.499665E-03
      0.210000          0.488964E-03
      0.215000          0.478905E-03
      0.220000          0.469157E-03
      0.225000          0.459468E-03
      0.230000          0.449662E-03
      0.235000          0.439627E-03
      0.240000          0.429296E-03
      0.245000          0.418635E-03
      0.250000          0.407637E-03
      0.255000          0.396309E-03
      0.260000          0.384672E-03
      0.265000          0.372762E-03
      0.270000          0.360634E-03
      0.275000          0.348357E-03
      0.280000          0.336024E-03
      0.285000          0.323742E-03
      0.290000          0.311632E-03
      0.295000          0.299822E-03
      0.300000          0.288434E-03
      0.305000          0.277580E-03
      0.310000          0.267346E-03
      0.315000          0.257792E-03
      0.320000          0.248942E-03
      0.325000          0.240789E-03
      0.330000          0.233292E-03
      0.335000          0.226388E-03
      0.340000          0.219998E-03
      0.345000          0.214038E-03
      0.350000          0.208428E-03
      0.355000          0.203098E-03
      0.360000          0.197997E-03
      0.365000          0.193095E-03
      0.370000          0.188378E-03
      0.375000          0.183851E-03
      0.380000          0.179528E-03
      0.385000          0.175423E-03
      0.390000          0.171551E-03
      0.395000          0.167914E-03
      0.400000          0.164501E-03
      0.405000          0.161285E-03
      0.410000          0.158227E-03
      0.415000          0.155276E-03
      0.420000          0.152374E-03
      0.425000          0.149468E-03
      0.430000          0.146509E-03
      0.435000          0.143462E-03
      0.440000          0.140311E-03
      0.445000          0.137056E-03
      0.450000          0.133717E-03
      0.455000          0.130330E-03
      0.460000          0.126942E-03
      0.465000          0.123603E-03
      0.470000          0.120365E-03
      0.475000          0.117271E-03
      0.480000          0.114353E-03
      0.485000          0.111629E-03
      0.490000          0.109102E-03
      0.495000          0.106760E-03
      0.500000          0.104579E-03
