 I_abs(s)[cm^-1]/c[mg/ml]
       0.00000          0.144446E-01
      0.500000E-02      0.143878E-01
      0.100000E-01      0.142187E-01
      0.150000E-01      0.139415E-01
      0.200000E-01      0.135627E-01
      0.250000E-01      0.130914E-01
      0.300000E-01      0.125384E-01
      0.350000E-01      0.119160E-01
      0.400000E-01      0.112378E-01
      0.450000E-01      0.105175E-01
      0.500000E-01      0.976929E-02
      0.550000E-01      0.900681E-02
      0.600000E-01      0.824293E-02
      0.650000E-01      0.748944E-02
      0.700000E-01      0.675674E-02
      0.750000E-01      0.605369E-02
      0.800000E-01      0.538750E-02
      0.850000E-01      0.476369E-02
      0.900000E-01      0.418617E-02
      0.950000E-01      0.365730E-02
      0.100000          0.317810E-02
      0.105000          0.274834E-02
      0.110000          0.236683E-02
      0.115000          0.203153E-02
      0.120000          0.173982E-02
      0.125000          0.148863E-02
      0.130000          0.127462E-02
      0.135000          0.109430E-02
      0.140000          0.944156E-03
      0.145000          0.820744E-03
      0.150000          0.720731E-03
      0.155000          0.640957E-03
      0.160000          0.578465E-03
      0.165000          0.530518E-03
      0.170000          0.494612E-03
      0.175000          0.468478E-03
      0.180000          0.450080E-03
      0.185000          0.437617E-03
      0.190000          0.429515E-03
      0.195000          0.424417E-03
      0.200000          0.421179E-03
      0.205000          0.418859E-03
      0.210000          0.416699E-03
      0.215000          0.414118E-03
      0.220000          0.410692E-03
      0.225000          0.406138E-03
      0.230000          0.400295E-03
      0.235000          0.393107E-03
      0.240000          0.384602E-03
      0.245000          0.374877E-03
      0.250000          0.364082E-03
      0.255000          0.352399E-03
      0.260000          0.340037E-03
      0.265000          0.327211E-03
      0.270000          0.314141E-03
      0.275000          0.301035E-03
      0.280000          0.288088E-03
      0.285000          0.275472E-03
      0.290000          0.263334E-03
      0.295000          0.251794E-03
      0.300000          0.240938E-03
      0.305000          0.230823E-03
      0.310000          0.221473E-03
      0.315000          0.212884E-03
      0.320000          0.205025E-03
      0.325000          0.197845E-03
      0.330000          0.191274E-03
      0.335000          0.185230E-03
      0.340000          0.179630E-03
      0.345000          0.174386E-03
      0.350000          0.169421E-03
      0.355000          0.164665E-03
      0.360000          0.160065E-03
      0.365000          0.155582E-03
      0.370000          0.151194E-03
      0.375000          0.146896E-03
      0.380000          0.142697E-03
      0.385000          0.138617E-03
      0.390000          0.134683E-03
      0.395000          0.130925E-03
      0.400000          0.127374E-03
      0.405000          0.124056E-03
      0.410000          0.120990E-03
      0.415000          0.118187E-03
      0.420000          0.115645E-03
      0.425000          0.113355E-03
      0.430000          0.111295E-03
      0.435000          0.109436E-03
      0.440000          0.107744E-03
      0.445000          0.106179E-03
      0.450000          0.104700E-03
      0.455000          0.103267E-03
      0.460000          0.101845E-03
      0.465000          0.100400E-03
      0.470000          0.989093E-04
      0.475000          0.973535E-04
      0.480000          0.957228E-04
      0.485000          0.940150E-04
      0.490000          0.922353E-04
      0.495000          0.903955E-04
      0.500000          0.885133E-04
