 I_abs(s)[cm^-1]/c[mg/ml]
       0.00000          0.143027E-01
      0.500000E-02      0.142227E-01
      0.100000E-01      0.139851E-01
      0.150000E-01      0.135976E-01
      0.200000E-01      0.130726E-01
      0.250000E-01      0.124265E-01
      0.300000E-01      0.116790E-01
      0.350000E-01      0.108522E-01
      0.400000E-01      0.996956E-02
      0.450000E-01      0.905497E-02
      0.500000E-01      0.813160E-02
      0.550000E-01      0.722111E-02
      0.600000E-01      0.634281E-02
      0.650000E-01      0.551311E-02
      0.700000E-01      0.474505E-02
      0.750000E-01      0.404814E-02
      0.800000E-01      0.342830E-02
      0.850000E-01      0.288802E-02
      0.900000E-01      0.242671E-02
      0.950000E-01      0.204112E-02
      0.100000          0.172584E-02
      0.105000          0.147388E-02
      0.110000          0.127723E-02
      0.115000          0.112741E-02
      0.120000          0.101593E-02
      0.125000          0.934703E-03
      0.130000          0.876360E-03
      0.135000          0.834459E-03
      0.140000          0.803610E-03
      0.145000          0.779513E-03
      0.150000          0.758918E-03
      0.155000          0.739541E-03
      0.160000          0.719927E-03
      0.165000          0.699297E-03
      0.170000          0.677393E-03
      0.175000          0.654321E-03
      0.180000          0.630414E-03
      0.185000          0.606119E-03
      0.190000          0.581904E-03
      0.195000          0.558199E-03
      0.200000          0.535354E-03
      0.205000          0.513623E-03
      0.210000          0.493160E-03
      0.215000          0.474030E-03
      0.220000          0.456222E-03
      0.225000          0.439670E-03
      0.230000          0.424271E-03
      0.235000          0.409902E-03
      0.240000          0.396432E-03
      0.245000          0.383736E-03
      0.250000          0.371695E-03
      0.255000          0.360206E-03
      0.260000          0.349178E-03
      0.265000          0.338542E-03
      0.270000          0.328242E-03
      0.275000          0.318239E-03
      0.280000          0.308513E-03
      0.285000          0.299059E-03
      0.290000          0.289885E-03
      0.295000          0.281017E-03
      0.300000          0.272488E-03
      0.305000          0.264339E-03
      0.310000          0.256614E-03
      0.315000          0.249355E-03
      0.320000          0.242595E-03
      0.325000          0.236355E-03
      0.330000          0.230639E-03
      0.335000          0.225432E-03
      0.340000          0.220700E-03
      0.345000          0.216388E-03
      0.350000          0.212424E-03
      0.355000          0.208725E-03
      0.360000          0.205201E-03
      0.365000          0.201758E-03
      0.370000          0.198311E-03
      0.375000          0.194783E-03
      0.380000          0.191113E-03
      0.385000          0.187258E-03
      0.390000          0.183196E-03
      0.395000          0.178924E-03
      0.400000          0.174457E-03
      0.405000          0.169826E-03
      0.410000          0.165074E-03
      0.415000          0.160251E-03
      0.420000          0.155412E-03
      0.425000          0.150609E-03
      0.430000          0.145893E-03
      0.435000          0.141309E-03
      0.440000          0.136895E-03
      0.445000          0.132680E-03
      0.450000          0.128689E-03
      0.455000          0.124937E-03
      0.460000          0.121436E-03
      0.465000          0.118194E-03
      0.470000          0.115213E-03
      0.475000          0.112494E-03
      0.480000          0.110036E-03
      0.485000          0.107832E-03
      0.490000          0.105875E-03
      0.495000          0.104152E-03
      0.500000          0.102646E-03
