 I_abs(s)[cm^-1]/c[mg/ml]
       0.00000          0.146190E-01
      0.500000E-02      0.145645E-01
      0.100000E-01      0.144019E-01
      0.150000E-01      0.141347E-01
      0.200000E-01      0.137682E-01
      0.250000E-01      0.133098E-01
      0.300000E-01      0.127686E-01
      0.350000E-01      0.121552E-01
      0.400000E-01      0.114812E-01
      0.450000E-01      0.107591E-01
      0.500000E-01      0.100020E-01
      0.550000E-01      0.922271E-02
      0.600000E-01      0.843419E-02
      0.650000E-01      0.764868E-02
      0.700000E-01      0.687759E-02
      0.750000E-01      0.613124E-02
      0.800000E-01      0.541865E-02
      0.850000E-01      0.474743E-02
      0.900000E-01      0.412361E-02
      0.950000E-01      0.355166E-02
      0.100000          0.303448E-02
      0.105000          0.257345E-02
      0.110000          0.216856E-02
      0.115000          0.181851E-02
      0.120000          0.152091E-02
      0.125000          0.127245E-02
      0.130000          0.106911E-02
      0.135000          0.906326E-03
      0.140000          0.779244E-03
      0.145000          0.682860E-03
      0.150000          0.612212E-03
      0.155000          0.562519E-03
      0.160000          0.529306E-03
      0.165000          0.508503E-03
      0.170000          0.496510E-03
      0.175000          0.490242E-03
      0.180000          0.487146E-03
      0.185000          0.485194E-03
      0.190000          0.482864E-03
      0.195000          0.479092E-03
      0.200000          0.473229E-03
      0.205000          0.464971E-03
      0.210000          0.454304E-03
      0.215000          0.441432E-03
      0.220000          0.426716E-03
      0.225000          0.410617E-03
      0.230000          0.393643E-03
      0.235000          0.376304E-03
      0.240000          0.359075E-03
      0.245000          0.342375E-03
      0.250000          0.326541E-03
      0.255000          0.311827E-03
      0.260000          0.298393E-03
      0.265000          0.286314E-03
      0.270000          0.275585E-03
      0.275000          0.266133E-03
      0.280000          0.257835E-03
      0.285000          0.250525E-03
      0.290000          0.244017E-03
      0.295000          0.238115E-03
      0.300000          0.232625E-03
      0.305000          0.227370E-03
      0.310000          0.222195E-03
      0.315000          0.216972E-03
      0.320000          0.211608E-03
      0.325000          0.206042E-03
      0.330000          0.200247E-03
      0.335000          0.194225E-03
      0.340000          0.188008E-03
      0.345000          0.181646E-03
      0.350000          0.175209E-03
      0.355000          0.168776E-03
      0.360000          0.162434E-03
      0.365000          0.156267E-03
      0.370000          0.150357E-03
      0.375000          0.144777E-03
      0.380000          0.139590E-03
      0.385000          0.134843E-03
      0.390000          0.130569E-03
      0.395000          0.126786E-03
      0.400000          0.123497E-03
      0.405000          0.120689E-03
      0.410000          0.118338E-03
      0.415000          0.116407E-03
      0.420000          0.114851E-03
      0.425000          0.113620E-03
      0.430000          0.112659E-03
      0.435000          0.111913E-03
      0.440000          0.111325E-03
      0.445000          0.110845E-03
      0.450000          0.110425E-03
      0.455000          0.110025E-03
      0.460000          0.109610E-03
      0.465000          0.109155E-03
      0.470000          0.108642E-03
      0.475000          0.108061E-03
      0.480000          0.107410E-03
      0.485000          0.106691E-03
      0.490000          0.105915E-03
      0.495000          0.105094E-03
      0.500000          0.104246E-03
