 I_abs(s)[cm^-1]/c[mg/ml]
       0.00000          0.138270E-01
      0.500000E-02      0.137614E-01
      0.100000E-01      0.135667E-01
      0.150000E-01      0.132482E-01
      0.200000E-01      0.128147E-01
      0.250000E-01      0.122781E-01
      0.300000E-01      0.116525E-01
      0.350000E-01      0.109543E-01
      0.400000E-01      0.102008E-01
      0.450000E-01      0.941001E-02
      0.500000E-01      0.859997E-02
      0.550000E-01      0.778786E-02
      0.600000E-01      0.698960E-02
      0.650000E-01      0.621938E-02
      0.700000E-01      0.548927E-02
      0.750000E-01      0.480897E-02
      0.800000E-01      0.418570E-02
      0.850000E-01      0.362421E-02
      0.900000E-01      0.312685E-02
      0.950000E-01      0.269379E-02
      0.100000          0.232327E-02
      0.105000          0.201193E-02
      0.110000          0.175513E-02
      0.115000          0.154735E-02
      0.120000          0.138247E-02
      0.125000          0.125416E-02
      0.130000          0.115612E-02
      0.135000          0.108232E-02
      0.140000          0.102718E-02
      0.145000          0.985733E-03
      0.150000          0.953671E-03
      0.155000          0.927400E-03
      0.160000          0.904041E-03
      0.165000          0.881389E-03
      0.170000          0.857866E-03
      0.175000          0.832442E-03
      0.180000          0.804557E-03
      0.185000          0.774038E-03
      0.190000          0.741010E-03
      0.195000          0.705825E-03
      0.200000          0.668985E-03
      0.205000          0.631089E-03
      0.210000          0.592772E-03
      0.215000          0.554670E-03
      0.220000          0.517383E-03
      0.225000          0.481455E-03
      0.230000          0.447350E-03
      0.235000          0.415448E-03
      0.240000          0.386034E-03
      0.245000          0.359300E-03
      0.250000          0.335347E-03
      0.255000          0.314192E-03
      0.260000          0.295773E-03
      0.265000          0.279961E-03
      0.270000          0.266572E-03
      0.275000          0.255377E-03
      0.280000          0.246115E-03
      0.285000          0.238504E-03
      0.290000          0.232255E-03
      0.295000          0.227080E-03
      0.300000          0.222702E-03
      0.305000          0.218863E-03
      0.310000          0.215332E-03
      0.315000          0.211908E-03
      0.320000          0.208428E-03
      0.325000          0.204761E-03
      0.330000          0.200817E-03
      0.335000          0.196545E-03
      0.340000          0.191924E-03
      0.345000          0.186970E-03
      0.350000          0.181726E-03
      0.355000          0.176258E-03
      0.360000          0.170651E-03
      0.365000          0.165002E-03
      0.370000          0.159415E-03
      0.375000          0.153992E-03
      0.380000          0.148830E-03
      0.385000          0.144017E-03
      0.390000          0.139621E-03
      0.395000          0.135693E-03
      0.400000          0.132264E-03
      0.405000          0.129339E-03
      0.410000          0.126902E-03
      0.415000          0.124918E-03
      0.420000          0.123332E-03
      0.425000          0.122076E-03
      0.430000          0.121072E-03
      0.435000          0.120236E-03
      0.440000          0.119487E-03
      0.445000          0.118746E-03
      0.450000          0.117944E-03
      0.455000          0.117024E-03
      0.460000          0.115944E-03
      0.465000          0.114674E-03
      0.470000          0.113205E-03
      0.475000          0.111537E-03
      0.480000          0.109688E-03
      0.485000          0.107683E-03
      0.490000          0.105556E-03
      0.495000          0.103347E-03
      0.500000          0.101096E-03
