 I_abs(s)[cm^-1]/c[mg/ml]
       0.00000          0.141928E-01
      0.500000E-02      0.141296E-01
      0.100000E-01      0.139416E-01
      0.150000E-01      0.136335E-01
      0.200000E-01      0.132129E-01
      0.250000E-01      0.126901E-01
      0.300000E-01      0.120777E-01
      0.350000E-01      0.113900E-01
      0.400000E-01      0.106428E-01
      0.450000E-01      0.985246E-02
      0.500000E-01      0.903581E-02
      0.550000E-01      0.820921E-02
      0.600000E-01      0.738825E-02
      0.650000E-01      0.658725E-02
      0.700000E-01      0.581891E-02
      0.750000E-01      0.509397E-02
      0.800000E-01      0.442105E-02
      0.850000E-01      0.380652E-02
      0.900000E-01      0.325451E-02
      0.950000E-01      0.276697E-02
      0.100000          0.234381E-02
      0.105000          0.198317E-02
      0.110000          0.168162E-02
      0.115000          0.143453E-02
      0.120000          0.123633E-02
      0.125000          0.108092E-02
      0.130000          0.961882E-03
      0.135000          0.872834E-03
      0.140000          0.807652E-03
      0.145000          0.760673E-03
      0.150000          0.726854E-03
      0.155000          0.701873E-03
      0.160000          0.682180E-03
      0.165000          0.665008E-03
      0.170000          0.648339E-03
      0.175000          0.630841E-03
      0.180000          0.611776E-03
      0.185000          0.590896E-03
      0.190000          0.568329E-03
      0.195000          0.544468E-03
      0.200000          0.519863E-03
      0.205000          0.495126E-03
      0.210000          0.470857E-03
      0.215000          0.447578E-03
      0.220000          0.425699E-03
      0.225000          0.405492E-03
      0.230000          0.387084E-03
      0.235000          0.370473E-03
      0.240000          0.355540E-03
      0.245000          0.342082E-03
      0.250000          0.329840E-03
      0.255000          0.318534E-03
      0.260000          0.307891E-03
      0.265000          0.297670E-03
      0.270000          0.287683E-03
      0.275000          0.277806E-03
      0.280000          0.267983E-03
      0.285000          0.258225E-03
      0.290000          0.248601E-03
      0.295000          0.239227E-03
      0.300000          0.230248E-03
      0.305000          0.221823E-03
      0.310000          0.214103E-03
      0.315000          0.207223E-03
      0.320000          0.201280E-03
      0.325000          0.196329E-03
      0.330000          0.192378E-03
      0.335000          0.189381E-03
      0.340000          0.187246E-03
      0.345000          0.185839E-03
      0.350000          0.184991E-03
      0.355000          0.184514E-03
      0.360000          0.184206E-03
      0.365000          0.183871E-03
      0.370000          0.183324E-03
      0.375000          0.182403E-03
      0.380000          0.180980E-03
      0.385000          0.178963E-03
      0.390000          0.176300E-03
      0.395000          0.172981E-03
      0.400000          0.169034E-03
      0.405000          0.164523E-03
      0.410000          0.159539E-03
      0.415000          0.154197E-03
      0.420000          0.148625E-03
      0.425000          0.142957E-03
      0.430000          0.137326E-03
      0.435000          0.131856E-03
      0.440000          0.126656E-03
      0.445000          0.121818E-03
      0.450000          0.117410E-03
      0.455000          0.113478E-03
      0.460000          0.110041E-03
      0.465000          0.107100E-03
      0.470000          0.104631E-03
      0.475000          0.102595E-03
      0.480000          0.100940E-03
      0.485000          0.996030E-04
      0.490000          0.985166E-04
      0.495000          0.976127E-04
      0.500000          0.968253E-04
