 I_abs(s)[cm^-1]/c[mg/ml]
       0.00000          0.143973E-01
      0.500000E-02      0.143237E-01
      0.100000E-01      0.141055E-01
      0.150000E-01      0.137494E-01
      0.200000E-01      0.132667E-01
      0.250000E-01      0.126723E-01
      0.300000E-01      0.119837E-01
      0.350000E-01      0.112210E-01
      0.400000E-01      0.104051E-01
      0.450000E-01      0.955725E-02
      0.500000E-01      0.869793E-02
      0.550000E-01      0.784625E-02
      0.600000E-01      0.701917E-02
      0.650000E-01      0.623100E-02
      0.700000E-01      0.549314E-02
      0.750000E-01      0.481390E-02
      0.800000E-01      0.419856E-02
      0.850000E-01      0.364955E-02
      0.900000E-01      0.316677E-02
      0.950000E-01      0.274799E-02
      0.100000          0.238929E-02
      0.105000          0.208554E-02
      0.110000          0.183086E-02
      0.115000          0.161899E-02
      0.120000          0.144371E-02
      0.125000          0.129906E-02
      0.130000          0.117956E-02
      0.135000          0.108037E-02
      0.140000          0.997291E-03
      0.145000          0.926841E-03
      0.150000          0.866168E-03
      0.155000          0.813009E-03
      0.160000          0.765608E-03
      0.165000          0.722631E-03
      0.170000          0.683082E-03
      0.175000          0.646236E-03
      0.180000          0.611578E-03
      0.185000          0.578752E-03
      0.190000          0.547527E-03
      0.195000          0.517774E-03
      0.200000          0.489438E-03
      0.205000          0.462524E-03
      0.210000          0.437081E-03
      0.215000          0.413188E-03
      0.220000          0.390932E-03
      0.225000          0.370398E-03
      0.230000          0.351649E-03
      0.235000          0.334715E-03
      0.240000          0.319582E-03
      0.245000          0.306184E-03
      0.250000          0.294407E-03
      0.255000          0.284089E-03
      0.260000          0.275030E-03
      0.265000          0.267007E-03
      0.270000          0.259784E-03
      0.275000          0.253135E-03
      0.280000          0.246853E-03
      0.285000          0.240766E-03
      0.290000          0.234743E-03
      0.295000          0.228702E-03
      0.300000          0.222611E-03
      0.305000          0.216481E-03
      0.310000          0.210358E-03
      0.315000          0.204320E-03
      0.320000          0.198456E-03
      0.325000          0.192862E-03
      0.330000          0.187622E-03
      0.335000          0.182807E-03
      0.340000          0.178459E-03
      0.345000          0.174594E-03
      0.350000          0.171196E-03
      0.355000          0.168222E-03
      0.360000          0.165602E-03
      0.365000          0.163249E-03
      0.370000          0.161061E-03
      0.375000          0.158935E-03
      0.380000          0.156768E-03
      0.385000          0.154469E-03
      0.390000          0.151962E-03
      0.395000          0.149188E-03
      0.400000          0.146113E-03
      0.405000          0.142723E-03
      0.410000          0.139029E-03
      0.415000          0.135060E-03
      0.420000          0.130862E-03
      0.425000          0.126495E-03
      0.430000          0.122029E-03
      0.435000          0.117537E-03
      0.440000          0.113097E-03
      0.445000          0.108780E-03
      0.450000          0.104655E-03
      0.455000          0.100782E-03
      0.460000          0.972108E-04
      0.465000          0.939817E-04
      0.470000          0.911231E-04
      0.475000          0.886527E-04
      0.480000          0.865770E-04
      0.485000          0.848929E-04
      0.490000          0.835877E-04
      0.495000          0.826407E-04
      0.500000          0.820240E-04
