 I_abs(s)[cm^-1]/c[mg/ml]
       0.00000          0.146111E-01
      0.500000E-02      0.145494E-01
      0.100000E-01      0.143659E-01
      0.150000E-01      0.140650E-01
      0.200000E-01      0.136540E-01
      0.250000E-01      0.131427E-01
      0.300000E-01      0.125429E-01
      0.350000E-01      0.118685E-01
      0.400000E-01      0.111345E-01
      0.450000E-01      0.103565E-01
      0.500000E-01      0.955066E-02
      0.550000E-01      0.873272E-02
      0.600000E-01      0.791769E-02
      0.650000E-01      0.711946E-02
      0.700000E-01      0.635037E-02
      0.750000E-01      0.562095E-02
      0.800000E-01      0.493976E-02
      0.850000E-01      0.431320E-02
      0.900000E-01      0.374557E-02
      0.950000E-01      0.323907E-02
      0.100000          0.279399E-02
      0.105000          0.240885E-02
      0.110000          0.208070E-02
      0.115000          0.180537E-02
      0.120000          0.157781E-02
      0.125000          0.139234E-02
      0.130000          0.124300E-02
      0.135000          0.112381E-02
      0.140000          0.102899E-02
      0.145000          0.953169E-03
      0.150000          0.891564E-03
      0.155000          0.840052E-03
      0.160000          0.795246E-03
      0.165000          0.754509E-03
      0.170000          0.715925E-03
      0.175000          0.678242E-03
      0.180000          0.640790E-03
      0.185000          0.603379E-03
      0.190000          0.566185E-03
      0.195000          0.529644E-03
      0.200000          0.494336E-03
      0.205000          0.460893E-03
      0.210000          0.429915E-03
      0.215000          0.401903E-03
      0.220000          0.377215E-03
      0.225000          0.356039E-03
      0.230000          0.338383E-03
      0.235000          0.324082E-03
      0.240000          0.312820E-03
      0.245000          0.304161E-03
      0.250000          0.297581E-03
      0.255000          0.292513E-03
      0.260000          0.288386E-03
      0.265000          0.284657E-03
      0.270000          0.280845E-03
      0.275000          0.276554E-03
      0.280000          0.271492E-03
      0.285000          0.265473E-03
      0.290000          0.258423E-03
      0.295000          0.250369E-03
      0.300000          0.241428E-03
      0.305000          0.231789E-03
      0.310000          0.221694E-03
      0.315000          0.211413E-03
      0.320000          0.201227E-03
      0.325000          0.191407E-03
      0.330000          0.182194E-03
      0.335000          0.173790E-03
      0.340000          0.166346E-03
      0.345000          0.159956E-03
      0.350000          0.154656E-03
      0.355000          0.150430E-03
      0.360000          0.147208E-03
      0.365000          0.144882E-03
      0.370000          0.143311E-03
      0.375000          0.142331E-03
      0.380000          0.141771E-03
      0.385000          0.141458E-03
      0.390000          0.141231E-03
      0.395000          0.140944E-03
      0.400000          0.140477E-03
      0.405000          0.139737E-03
      0.410000          0.138660E-03
      0.415000          0.137214E-03
      0.420000          0.135394E-03
      0.425000          0.133221E-03
      0.430000          0.130737E-03
      0.435000          0.128001E-03
      0.440000          0.125083E-03
      0.445000          0.122058E-03
      0.450000          0.119003E-03
      0.455000          0.115990E-03
      0.460000          0.113085E-03
      0.465000          0.110343E-03
      0.470000          0.107804E-03
      0.475000          0.105497E-03
      0.480000          0.103438E-03
      0.485000          0.101626E-03
      0.490000          0.100050E-03
      0.495000          0.986904E-04
      0.500000          0.975165E-04
