 I_abs(s)[cm^-1]/c[mg/ml]
       0.00000          0.144446E-01
      0.500000E-02      0.143674E-01
      0.100000E-01      0.141382E-01
      0.150000E-01      0.137642E-01
      0.200000E-01      0.132571E-01
      0.250000E-01      0.126322E-01
      0.300000E-01      0.119081E-01
      0.350000E-01      0.111057E-01
      0.400000E-01      0.102471E-01
      0.450000E-01      0.935454E-02
      0.500000E-01      0.844999E-02
      0.550000E-01      0.755382E-02
      0.600000E-01      0.668432E-02
      0.650000E-01      0.585708E-02
      0.700000E-01      0.508469E-02
      0.750000E-01      0.437648E-02
      0.800000E-01      0.373859E-02
      0.850000E-01      0.317406E-02
      0.900000E-01      0.268316E-02
      0.950000E-01      0.226376E-02
      0.100000          0.191179E-02
      0.105000          0.162169E-02
      0.110000          0.138695E-02
      0.115000          0.120050E-02
      0.120000          0.105514E-02
      0.125000          0.943866E-03
      0.130000          0.860110E-03
      0.135000          0.797936E-03
      0.140000          0.752141E-03
      0.145000          0.718302E-03
      0.150000          0.692766E-03
      0.155000          0.672612E-03
      0.160000          0.655572E-03
      0.165000          0.639953E-03
      0.170000          0.624548E-03
      0.175000          0.608544E-03
      0.180000          0.591450E-03
      0.185000          0.573029E-03
      0.190000          0.553237E-03
      0.195000          0.532182E-03
      0.200000          0.510084E-03
      0.205000          0.487243E-03
      0.210000          0.464016E-03
      0.215000          0.440791E-03
      0.220000          0.417964E-03
      0.225000          0.395922E-03
      0.230000          0.375021E-03
      0.235000          0.355570E-03
      0.240000          0.337819E-03
      0.245000          0.321945E-03
      0.250000          0.308051E-03
      0.255000          0.296162E-03
      0.260000          0.286231E-03
      0.265000          0.278145E-03
      0.270000          0.271737E-03
      0.275000          0.266802E-03
      0.280000          0.263111E-03
      0.285000          0.260425E-03
      0.290000          0.258509E-03
      0.295000          0.257146E-03
      0.300000          0.256141E-03
      0.305000          0.255330E-03
      0.310000          0.254580E-03
      0.315000          0.253791E-03
      0.320000          0.252888E-03
      0.325000          0.251823E-03
      0.330000          0.250563E-03
      0.335000          0.249087E-03
      0.340000          0.247381E-03
      0.345000          0.245432E-03
      0.350000          0.243225E-03
      0.355000          0.240742E-03
      0.360000          0.237962E-03
      0.365000          0.234860E-03
      0.370000          0.231411E-03
      0.375000          0.227591E-03
      0.380000          0.223383E-03
      0.385000          0.218776E-03
      0.390000          0.213773E-03
      0.395000          0.208388E-03
      0.400000          0.202651E-03
      0.405000          0.196605E-03
      0.410000          0.190309E-03
      0.415000          0.183834E-03
      0.420000          0.177260E-03
      0.425000          0.170675E-03
      0.430000          0.164169E-03
      0.435000          0.157833E-03
      0.440000          0.151752E-03
      0.445000          0.146003E-03
      0.450000          0.140653E-03
      0.455000          0.135753E-03
      0.460000          0.131340E-03
      0.465000          0.127433E-03
      0.470000          0.124037E-03
      0.475000          0.121138E-03
      0.480000          0.118710E-03
      0.485000          0.116710E-03
      0.490000          0.115091E-03
      0.495000          0.113794E-03
      0.500000          0.112757E-03
