 I_abs(s)[cm^-1]/c[mg/ml]
       0.00000          0.136743E-01
      0.500000E-02      0.135689E-01
      0.100000E-01      0.132572E-01
      0.150000E-01      0.127532E-01
      0.200000E-01      0.120790E-01
      0.250000E-01      0.112633E-01
      0.300000E-01      0.103396E-01
      0.350000E-01      0.934393E-02
      0.400000E-01      0.831274E-02
      0.450000E-01      0.728077E-02
      0.500000E-01      0.627932E-02
      0.550000E-01      0.533482E-02
      0.600000E-01      0.446796E-02
      0.650000E-01      0.369329E-02
      0.700000E-01      0.301931E-02
      0.750000E-01      0.244886E-02
      0.800000E-01      0.197999E-02
      0.850000E-01      0.160679E-02
      0.900000E-01      0.132054E-02
      0.950000E-01      0.111062E-02
      0.100000          0.965486E-03
      0.105000          0.873396E-03
      0.110000          0.823027E-03
      0.115000          0.803876E-03
      0.120000          0.806529E-03
      0.125000          0.822796E-03
      0.130000          0.845756E-03
      0.135000          0.869748E-03
      0.140000          0.890323E-03
      0.145000          0.904184E-03
      0.150000          0.909118E-03
      0.155000          0.903922E-03
      0.160000          0.888315E-03
      0.165000          0.862827E-03
      0.170000          0.828677E-03
      0.175000          0.787611E-03
      0.180000          0.741734E-03
      0.185000          0.693320E-03
      0.190000          0.644627E-03
      0.195000          0.597726E-03
      0.200000          0.554362E-03
      0.205000          0.515849E-03
      0.210000          0.483017E-03
      0.215000          0.456204E-03
      0.220000          0.435293E-03
      0.225000          0.419788E-03
      0.230000          0.408907E-03
      0.235000          0.401693E-03
      0.240000          0.397119E-03
      0.245000          0.394185E-03
      0.250000          0.391994E-03
      0.255000          0.389801E-03
      0.260000          0.387042E-03
      0.265000          0.383341E-03
      0.270000          0.378497E-03
      0.275000          0.372459E-03
      0.280000          0.365299E-03
      0.285000          0.357176E-03
      0.290000          0.348308E-03
      0.295000          0.338948E-03
      0.300000          0.329355E-03
      0.305000          0.319786E-03
      0.310000          0.310476E-03
      0.315000          0.301628E-03
      0.320000          0.293408E-03
      0.325000          0.285934E-03
      0.330000          0.279277E-03
      0.335000          0.273450E-03
      0.340000          0.268415E-03
      0.345000          0.264084E-03
      0.350000          0.260326E-03
      0.355000          0.256979E-03
      0.360000          0.253861E-03
      0.365000          0.250784E-03
      0.370000          0.247571E-03
      0.375000          0.244066E-03
      0.380000          0.240146E-03
      0.385000          0.235728E-03
      0.390000          0.230768E-03
      0.395000          0.225265E-03
      0.400000          0.219252E-03
      0.405000          0.212793E-03
      0.410000          0.205973E-03
      0.415000          0.198892E-03
      0.420000          0.191656E-03
      0.425000          0.184375E-03
      0.430000          0.177156E-03
      0.435000          0.170101E-03
      0.440000          0.163307E-03
      0.445000          0.156863E-03
      0.450000          0.150850E-03
      0.455000          0.145339E-03
      0.460000          0.140390E-03
      0.465000          0.136046E-03
      0.470000          0.132334E-03
      0.475000          0.129259E-03
      0.480000          0.126805E-03
      0.485000          0.124934E-03
      0.490000          0.123584E-03
      0.495000          0.122676E-03
      0.500000          0.122118E-03
