 I_abs(s)[cm^-1]/c[mg/ml]
       0.00000          0.143922E-01
      0.500000E-02      0.143089E-01
      0.100000E-01      0.140623E-01
      0.150000E-01      0.136618E-01
      0.200000E-01      0.131229E-01
      0.250000E-01      0.124654E-01
      0.300000E-01      0.117129E-01
      0.350000E-01      0.108910E-01
      0.400000E-01      0.100258E-01
      0.450000E-01      0.914285E-02
      0.500000E-01      0.826562E-02
      0.550000E-01      0.741451E-02
      0.600000E-01      0.660617E-02
      0.650000E-01      0.585313E-02
      0.700000E-01      0.516367E-02
      0.750000E-01      0.454208E-02
      0.800000E-01      0.398910E-02
      0.850000E-01      0.350259E-02
      0.900000E-01      0.307820E-02
      0.950000E-01      0.271021E-02
      0.100000          0.239218E-02
      0.105000          0.211759E-02
      0.110000          0.188030E-02
      0.115000          0.167491E-02
      0.120000          0.149686E-02
      0.125000          0.134252E-02
      0.130000          0.120906E-02
      0.135000          0.109430E-02
      0.140000          0.996514E-03
      0.145000          0.914237E-03
      0.150000          0.846064E-03
      0.155000          0.790539E-03
      0.160000          0.746073E-03
      0.165000          0.710934E-03
      0.170000          0.683282E-03
      0.175000          0.661246E-03
      0.180000          0.643015E-03
      0.185000          0.626943E-03
      0.190000          0.611630E-03
      0.195000          0.595991E-03
      0.200000          0.579285E-03
      0.205000          0.561113E-03
      0.210000          0.541392E-03
      0.215000          0.520291E-03
      0.220000          0.498166E-03
      0.225000          0.475482E-03
      0.230000          0.452734E-03
      0.235000          0.430393E-03
      0.240000          0.408852E-03
      0.245000          0.388401E-03
      0.250000          0.369221E-03
      0.255000          0.351385E-03
      0.260000          0.334879E-03
      0.265000          0.319627E-03
      0.270000          0.305520E-03
      0.275000          0.292438E-03
      0.280000          0.280273E-03
      0.285000          0.268937E-03
      0.290000          0.258373E-03
      0.295000          0.248548E-03
      0.300000          0.239450E-03
      0.305000          0.231074E-03
      0.310000          0.223416E-03
      0.315000          0.216463E-03
      0.320000          0.210182E-03
      0.325000          0.204523E-03
      0.330000          0.199416E-03
      0.335000          0.194776E-03
      0.340000          0.190505E-03
      0.345000          0.186507E-03
      0.350000          0.182686E-03
      0.355000          0.178960E-03
      0.360000          0.175258E-03
      0.365000          0.171530E-03
      0.370000          0.167742E-03
      0.375000          0.163880E-03
      0.380000          0.159941E-03
      0.385000          0.155937E-03
      0.390000          0.151887E-03
      0.395000          0.147818E-03
      0.400000          0.143758E-03
      0.405000          0.139736E-03
      0.410000          0.135783E-03
      0.415000          0.131929E-03
      0.420000          0.128202E-03
      0.425000          0.124632E-03
      0.430000          0.121244E-03
      0.435000          0.118063E-03
      0.440000          0.115112E-03
      0.445000          0.112408E-03
      0.450000          0.109965E-03
      0.455000          0.107788E-03
      0.460000          0.105877E-03
      0.465000          0.104221E-03
      0.470000          0.102801E-03
      0.475000          0.101592E-03
      0.480000          0.100557E-03
      0.485000          0.996572E-04
      0.490000          0.988466E-04
      0.495000          0.980790E-04
      0.500000          0.973085E-04
