 I_abs(s)[cm^-1]/c[mg/ml]
       0.00000          0.137979E-01
      0.500000E-02      0.137273E-01
      0.100000E-01      0.135180E-01
      0.150000E-01      0.131771E-01
      0.200000E-01      0.127158E-01
      0.250000E-01      0.121492E-01
      0.300000E-01      0.114951E-01
      0.350000E-01      0.107733E-01
      0.400000E-01      0.100047E-01
      0.450000E-01      0.921009E-02
      0.500000E-01      0.840923E-02
      0.550000E-01      0.762033E-02
      0.600000E-01      0.685916E-02
      0.650000E-01      0.613867E-02
      0.700000E-01      0.546878E-02
      0.750000E-01      0.485622E-02
      0.800000E-01      0.430477E-02
      0.850000E-01      0.381540E-02
      0.900000E-01      0.338675E-02
      0.950000E-01      0.301555E-02
      0.100000          0.269708E-02
      0.105000          0.242570E-02
      0.110000          0.219527E-02
      0.115000          0.199956E-02
      0.120000          0.183258E-02
      0.125000          0.168880E-02
      0.130000          0.156331E-02
      0.135000          0.145195E-02
      0.140000          0.135128E-02
      0.145000          0.125861E-02
      0.150000          0.117190E-02
      0.155000          0.108971E-02
      0.160000          0.101111E-02
      0.165000          0.935559E-03
      0.170000          0.862833E-03
      0.175000          0.792946E-03
      0.180000          0.726071E-03
      0.185000          0.662479E-03
      0.190000          0.602488E-03
      0.195000          0.546413E-03
      0.200000          0.494539E-03
      0.205000          0.447085E-03
      0.210000          0.404191E-03
      0.215000          0.365901E-03
      0.220000          0.332160E-03
      0.225000          0.302819E-03
      0.230000          0.277638E-03
      0.235000          0.256310E-03
      0.240000          0.238471E-03
      0.245000          0.223729E-03
      0.250000          0.211680E-03
      0.255000          0.201928E-03
      0.260000          0.194105E-03
      0.265000          0.187878E-03
      0.270000          0.182956E-03
      0.275000          0.179092E-03
      0.280000          0.176080E-03
      0.285000          0.173746E-03
      0.290000          0.171946E-03
      0.295000          0.170554E-03
      0.300000          0.169459E-03
      0.305000          0.168558E-03
      0.310000          0.167758E-03
      0.315000          0.166977E-03
      0.320000          0.166143E-03
      0.325000          0.165204E-03
      0.330000          0.164128E-03
      0.335000          0.162906E-03
      0.340000          0.161555E-03
      0.345000          0.160108E-03
      0.350000          0.158620E-03
      0.355000          0.157150E-03
      0.360000          0.155759E-03
      0.365000          0.154498E-03
      0.370000          0.153399E-03
      0.375000          0.152473E-03
      0.380000          0.151702E-03
      0.385000          0.151040E-03
      0.390000          0.150420E-03
      0.395000          0.149756E-03
      0.400000          0.148955E-03
      0.405000          0.147925E-03
      0.410000          0.146587E-03
      0.415000          0.144882E-03
      0.420000          0.142779E-03
      0.425000          0.140278E-03
      0.430000          0.137407E-03
      0.435000          0.134225E-03
      0.440000          0.130811E-03
      0.445000          0.127257E-03
      0.450000          0.123662E-03
      0.455000          0.120116E-03
      0.460000          0.116701E-03
      0.465000          0.113478E-03
      0.470000          0.110487E-03
      0.475000          0.107743E-03
      0.480000          0.105239E-03
      0.485000          0.102952E-03
      0.490000          0.100844E-03
      0.495000          0.988680E-04
      0.500000          0.969792E-04
