 I_abs(s)[cm^-1]/c[mg/ml]
       0.00000          0.138831E-01
      0.500000E-02      0.138232E-01
      0.100000E-01      0.136450E-01
      0.150000E-01      0.133533E-01
      0.200000E-01      0.129555E-01
      0.250000E-01      0.124620E-01
      0.300000E-01      0.118852E-01
      0.350000E-01      0.112390E-01
      0.400000E-01      0.105389E-01
      0.450000E-01      0.980071E-02
      0.500000E-01      0.904036E-02
      0.550000E-01      0.827329E-02
      0.600000E-01      0.751393E-02
      0.650000E-01      0.677528E-02
      0.700000E-01      0.606860E-02
      0.750000E-01      0.540313E-02
      0.800000E-01      0.478599E-02
      0.850000E-01      0.422211E-02
      0.900000E-01      0.371430E-02
      0.950000E-01      0.326338E-02
      0.100000          0.286840E-02
      0.105000          0.252689E-02
      0.110000          0.223518E-02
      0.115000          0.198868E-02
      0.120000          0.178222E-02
      0.125000          0.161035E-02
      0.130000          0.146759E-02
      0.135000          0.134869E-02
      0.140000          0.124877E-02
      0.145000          0.116351E-02
      0.150000          0.108920E-02
      0.155000          0.102280E-02
      0.160000          0.961932E-03
      0.165000          0.904836E-03
      0.170000          0.850327E-03
      0.175000          0.797700E-03
      0.180000          0.746645E-03
      0.185000          0.697143E-03
      0.190000          0.649384E-03
      0.195000          0.603674E-03
      0.200000          0.560367E-03
      0.205000          0.519805E-03
      0.210000          0.482276E-03
      0.215000          0.447984E-03
      0.220000          0.417037E-03
      0.225000          0.389441E-03
      0.230000          0.365109E-03
      0.235000          0.343876E-03
      0.240000          0.325512E-03
      0.245000          0.309743E-03
      0.250000          0.296274E-03
      0.255000          0.284800E-03
      0.260000          0.275027E-03
      0.265000          0.266680E-03
      0.270000          0.259508E-03
      0.275000          0.253294E-03
      0.280000          0.247850E-03
      0.285000          0.243020E-03
      0.290000          0.238672E-03
      0.295000          0.234699E-03
      0.300000          0.231011E-03
      0.305000          0.227527E-03
      0.310000          0.224181E-03
      0.315000          0.220910E-03
      0.320000          0.217654E-03
      0.325000          0.214361E-03
      0.330000          0.210978E-03
      0.335000          0.207461E-03
      0.340000          0.203769E-03
      0.345000          0.199871E-03
      0.350000          0.195742E-03
      0.355000          0.191371E-03
      0.360000          0.186758E-03
      0.365000          0.181911E-03
      0.370000          0.176854E-03
      0.375000          0.171618E-03
      0.380000          0.166246E-03
      0.385000          0.160787E-03
      0.390000          0.155294E-03
      0.395000          0.149826E-03
      0.400000          0.144441E-03
      0.405000          0.139197E-03
      0.410000          0.134149E-03
      0.415000          0.129348E-03
      0.420000          0.124839E-03
      0.425000          0.120662E-03
      0.430000          0.116847E-03
      0.435000          0.113420E-03
      0.440000          0.110397E-03
      0.445000          0.107788E-03
      0.450000          0.105594E-03
      0.455000          0.103811E-03
      0.460000          0.102426E-03
      0.465000          0.101419E-03
      0.470000          0.100765E-03
      0.475000          0.100433E-03
      0.480000          0.100385E-03
      0.485000          0.100579E-03
      0.490000          0.100968E-03
      0.495000          0.101502E-03
      0.500000          0.102129E-03
