 I_abs(s)[cm^-1]/c[mg/ml]
       0.00000          0.141875E-01
      0.500000E-02      0.141292E-01
      0.100000E-01      0.139557E-01
      0.150000E-01      0.136713E-01
      0.200000E-01      0.132826E-01
      0.250000E-01      0.127988E-01
      0.300000E-01      0.122310E-01
      0.350000E-01      0.115920E-01
      0.400000E-01      0.108958E-01
      0.450000E-01      0.101568E-01
      0.500000E-01      0.938999E-02
      0.550000E-01      0.860982E-02
      0.600000E-01      0.783017E-02
      0.650000E-01      0.706380E-02
      0.700000E-01      0.632208E-02
      0.750000E-01      0.561475E-02
      0.800000E-01      0.494975E-02
      0.850000E-01      0.433313E-02
      0.900000E-01      0.376908E-02
      0.950000E-01      0.325999E-02
      0.100000          0.280656E-02
      0.105000          0.240803E-02
      0.110000          0.206235E-02
      0.115000          0.176645E-02
      0.120000          0.151652E-02
      0.125000          0.130820E-02
      0.130000          0.113683E-02
      0.135000          0.997699E-03
      0.140000          0.886168E-03
      0.145000          0.797843E-03
      0.150000          0.728670E-03
      0.155000          0.675009E-03
      0.160000          0.633670E-03
      0.165000          0.601923E-03
      0.170000          0.577480E-03
      0.175000          0.558462E-03
      0.180000          0.543359E-03
      0.185000          0.530974E-03
      0.190000          0.520369E-03
      0.195000          0.510822E-03
      0.200000          0.501773E-03
      0.205000          0.492793E-03
      0.210000          0.483552E-03
      0.215000          0.473800E-03
      0.220000          0.463349E-03
      0.225000          0.452066E-03
      0.230000          0.439874E-03
      0.235000          0.426741E-03
      0.240000          0.412691E-03
      0.245000          0.397792E-03
      0.250000          0.382161E-03
      0.255000          0.365954E-03
      0.260000          0.349365E-03
      0.265000          0.332609E-03
      0.270000          0.315917E-03
      0.275000          0.299522E-03
      0.280000          0.283647E-03
      0.285000          0.268495E-03
      0.290000          0.254236E-03
      0.295000          0.241006E-03
      0.300000          0.228898E-03
      0.305000          0.217961E-03
      0.310000          0.208203E-03
      0.315000          0.199595E-03
      0.320000          0.192075E-03
      0.325000          0.185556E-03
      0.330000          0.179936E-03
      0.335000          0.175104E-03
      0.340000          0.170949E-03
      0.345000          0.167366E-03
      0.350000          0.164261E-03
      0.355000          0.161554E-03
      0.360000          0.159182E-03
      0.365000          0.157097E-03
      0.370000          0.155264E-03
      0.375000          0.153660E-03
      0.380000          0.152270E-03
      0.385000          0.151083E-03
      0.390000          0.150086E-03
      0.395000          0.149265E-03
      0.400000          0.148598E-03
      0.405000          0.148059E-03
      0.410000          0.147612E-03
      0.415000          0.147213E-03
      0.420000          0.146814E-03
      0.425000          0.146363E-03
      0.430000          0.145809E-03
      0.435000          0.145100E-03
      0.440000          0.144192E-03
      0.445000          0.143050E-03
      0.450000          0.141646E-03
      0.455000          0.139967E-03
      0.460000          0.138011E-03
      0.465000          0.135789E-03
      0.470000          0.133323E-03
      0.475000          0.130646E-03
      0.480000          0.127800E-03
      0.485000          0.124830E-03
      0.490000          0.121786E-03
      0.495000          0.118718E-03
      0.500000          0.115671E-03
