 I_abs(s)[cm^-1]/c[mg/ml]
       0.00000          0.142739E-01
      0.500000E-02      0.142217E-01
      0.100000E-01      0.140661E-01
      0.150000E-01      0.138105E-01
      0.200000E-01      0.134603E-01
      0.250000E-01      0.130227E-01
      0.300000E-01      0.125068E-01
      0.350000E-01      0.119228E-01
      0.400000E-01      0.112822E-01
      0.450000E-01      0.105972E-01
      0.500000E-01      0.988009E-02
      0.550000E-01      0.914341E-02
      0.600000E-01      0.839924E-02
      0.650000E-01      0.765903E-02
      0.700000E-01      0.693328E-02
      0.750000E-01      0.623136E-02
      0.800000E-01      0.556130E-02
      0.850000E-01      0.492970E-02
      0.900000E-01      0.434167E-02
      0.950000E-01      0.380085E-02
      0.100000          0.330940E-02
      0.105000          0.286816E-02
      0.110000          0.247673E-02
      0.115000          0.213366E-02
      0.120000          0.183660E-02
      0.125000          0.158251E-02
      0.130000          0.136781E-02
      0.135000          0.118861E-02
      0.140000          0.104082E-02
      0.145000          0.920342E-03
      0.150000          0.823194E-03
      0.155000          0.745589E-03
      0.160000          0.684032E-03
      0.165000          0.635374E-03
      0.170000          0.596837E-03
      0.175000          0.566036E-03
      0.180000          0.540965E-03
      0.185000          0.519982E-03
      0.190000          0.501781E-03
      0.195000          0.485354E-03
      0.200000          0.469952E-03
      0.205000          0.455042E-03
      0.210000          0.440272E-03
      0.215000          0.425429E-03
      0.220000          0.410408E-03
      0.225000          0.395185E-03
      0.230000          0.379792E-03
      0.235000          0.364300E-03
      0.240000          0.348803E-03
      0.245000          0.333407E-03
      0.250000          0.318225E-03
      0.255000          0.303369E-03
      0.260000          0.288949E-03
      0.265000          0.275068E-03
      0.270000          0.261821E-03
      0.275000          0.249294E-03
      0.280000          0.237559E-03
      0.285000          0.226678E-03
      0.290000          0.216697E-03
      0.295000          0.207645E-03
      0.300000          0.199534E-03
      0.305000          0.192360E-03
      0.310000          0.186097E-03
      0.315000          0.180706E-03
      0.320000          0.176127E-03
      0.325000          0.172288E-03
      0.330000          0.169104E-03
      0.335000          0.166483E-03
      0.340000          0.164324E-03
      0.345000          0.162528E-03
      0.350000          0.160995E-03
      0.355000          0.159632E-03
      0.360000          0.158353E-03
      0.365000          0.157085E-03
      0.370000          0.155765E-03
      0.375000          0.154346E-03
      0.380000          0.152795E-03
      0.385000          0.151094E-03
      0.390000          0.149236E-03
      0.395000          0.147228E-03
      0.400000          0.145085E-03
      0.405000          0.142830E-03
      0.410000          0.140492E-03
      0.415000          0.138102E-03
      0.420000          0.135691E-03
      0.425000          0.133287E-03
      0.430000          0.130918E-03
      0.435000          0.128604E-03
      0.440000          0.126361E-03
      0.445000          0.124197E-03
      0.450000          0.122118E-03
      0.455000          0.120120E-03
      0.460000          0.118197E-03
      0.465000          0.116338E-03
      0.470000          0.114530E-03
      0.475000          0.112758E-03
      0.480000          0.111008E-03
      0.485000          0.109267E-03
      0.490000          0.107523E-03
      0.495000          0.105768E-03
      0.500000          0.103998E-03
