 I_abs(s)[cm^-1]/c[mg/ml]
       0.00000          0.140076E-01
      0.500000E-02      0.139427E-01
      0.100000E-01      0.137497E-01
      0.150000E-01      0.134335E-01
      0.200000E-01      0.130023E-01
      0.250000E-01      0.124669E-01
      0.300000E-01      0.118407E-01
      0.350000E-01      0.111388E-01
      0.400000E-01      0.103778E-01
      0.450000E-01      0.957509E-02
      0.500000E-01      0.874819E-02
      0.550000E-01      0.791429E-02
      0.600000E-01      0.708961E-02
      0.650000E-01      0.628901E-02
      0.700000E-01      0.552553E-02
      0.750000E-01      0.481012E-02
      0.800000E-01      0.415142E-02
      0.850000E-01      0.355566E-02
      0.900000E-01      0.302664E-02
      0.950000E-01      0.256586E-02
      0.100000          0.217264E-02
      0.105000          0.184441E-02
      0.110000          0.157699E-02
      0.115000          0.136493E-02
      0.120000          0.120184E-02
      0.125000          0.108076E-02
      0.130000          0.994494E-03
      0.135000          0.935919E-03
      0.140000          0.898250E-03
      0.145000          0.875258E-03
      0.150000          0.861444E-03
      0.155000          0.852149E-03
      0.160000          0.843618E-03
      0.165000          0.833007E-03
      0.170000          0.818354E-03
      0.175000          0.798513E-03
      0.180000          0.773053E-03
      0.185000          0.742143E-03
      0.190000          0.706429E-03
      0.195000          0.666900E-03
      0.200000          0.624762E-03
      0.205000          0.581326E-03
      0.210000          0.537901E-03
      0.215000          0.495714E-03
      0.220000          0.455841E-03
      0.225000          0.419163E-03
      0.230000          0.386338E-03
      0.235000          0.357791E-03
      0.240000          0.333719E-03
      0.245000          0.314109E-03
      0.250000          0.298763E-03
      0.255000          0.287330E-03
      0.260000          0.279344E-03
      0.265000          0.274261E-03
      0.270000          0.271493E-03
      0.275000          0.270442E-03
      0.280000          0.270530E-03
      0.285000          0.271220E-03
      0.290000          0.272039E-03
      0.295000          0.272587E-03
      0.300000          0.272543E-03
      0.305000          0.271674E-03
      0.310000          0.269829E-03
      0.315000          0.266934E-03
      0.320000          0.262986E-03
      0.325000          0.258041E-03
      0.330000          0.252204E-03
      0.335000          0.245620E-03
      0.340000          0.238455E-03
      0.345000          0.230892E-03
      0.350000          0.223117E-03
      0.355000          0.215309E-03
      0.360000          0.207634E-03
      0.365000          0.200239E-03
      0.370000          0.193246E-03
      0.375000          0.186751E-03
      0.380000          0.180819E-03
      0.385000          0.175489E-03
      0.390000          0.170775E-03
      0.395000          0.166663E-03
      0.400000          0.163123E-03
      0.405000          0.160107E-03
      0.410000          0.157553E-03
      0.415000          0.155395E-03
      0.420000          0.153562E-03
      0.425000          0.151983E-03
      0.430000          0.150593E-03
      0.435000          0.149332E-03
      0.440000          0.148147E-03
      0.445000          0.146997E-03
      0.450000          0.145851E-03
      0.455000          0.144684E-03
      0.460000          0.143483E-03
      0.465000          0.142240E-03
      0.470000          0.140953E-03
      0.475000          0.139625E-03
      0.480000          0.138259E-03
      0.485000          0.136859E-03
      0.490000          0.135428E-03
      0.495000          0.133967E-03
      0.500000          0.132473E-03
