 I_abs(s)[cm^-1]/c[mg/ml]
       0.00000          0.141169E-01
      0.500000E-02      0.140596E-01
      0.100000E-01      0.138890E-01
      0.150000E-01      0.136097E-01
      0.200000E-01      0.132287E-01
      0.250000E-01      0.127557E-01
      0.300000E-01      0.122025E-01
      0.350000E-01      0.115820E-01
      0.400000E-01      0.109087E-01
      0.450000E-01      0.101973E-01
      0.500000E-01      0.946248E-02
      0.550000E-01      0.871839E-02
      0.600000E-01      0.797825E-02
      0.650000E-01      0.725388E-02
      0.700000E-01      0.655552E-02
      0.750000E-01      0.589156E-02
      0.800000E-01      0.526852E-02
      0.850000E-01      0.469103E-02
      0.900000E-01      0.416191E-02
      0.950000E-01      0.368233E-02
      0.100000          0.325201E-02
      0.105000          0.286944E-02
      0.110000          0.253218E-02
      0.115000          0.223706E-02
      0.120000          0.198046E-02
      0.125000          0.175851E-02
      0.130000          0.156728E-02
      0.135000          0.140293E-02
      0.140000          0.126186E-02
      0.145000          0.114070E-02
      0.150000          0.103647E-02
      0.155000          0.946517E-03
      0.160000          0.868535E-03
      0.165000          0.800562E-03
      0.170000          0.740935E-03
      0.175000          0.688261E-03
      0.180000          0.641382E-03
      0.185000          0.599338E-03
      0.190000          0.561337E-03
      0.195000          0.526732E-03
      0.200000          0.494993E-03
      0.205000          0.465693E-03
      0.210000          0.438493E-03
      0.215000          0.413128E-03
      0.220000          0.389397E-03
      0.225000          0.367155E-03
      0.230000          0.346300E-03
      0.235000          0.326767E-03
      0.240000          0.308519E-03
      0.245000          0.291539E-03
      0.250000          0.275821E-03
      0.255000          0.261362E-03
      0.260000          0.248160E-03
      0.265000          0.236209E-03
      0.270000          0.225491E-03
      0.275000          0.215981E-03
      0.280000          0.207640E-03
      0.285000          0.200420E-03
      0.290000          0.194261E-03
      0.295000          0.189093E-03
      0.300000          0.184836E-03
      0.305000          0.181405E-03
      0.310000          0.178706E-03
      0.315000          0.176639E-03
      0.320000          0.175103E-03
      0.325000          0.173991E-03
      0.330000          0.173198E-03
      0.335000          0.172616E-03
      0.340000          0.172144E-03
      0.345000          0.171684E-03
      0.350000          0.171149E-03
      0.355000          0.170461E-03
      0.360000          0.169556E-03
      0.365000          0.168386E-03
      0.370000          0.166919E-03
      0.375000          0.165141E-03
      0.380000          0.163056E-03
      0.385000          0.160681E-03
      0.390000          0.158049E-03
      0.395000          0.155205E-03
      0.400000          0.152199E-03
      0.405000          0.149086E-03
      0.410000          0.145922E-03
      0.415000          0.142759E-03
      0.420000          0.139643E-03
      0.425000          0.136612E-03
      0.430000          0.133694E-03
      0.435000          0.130904E-03
      0.440000          0.128250E-03
      0.445000          0.125727E-03
      0.450000          0.123323E-03
      0.455000          0.121021E-03
      0.460000          0.118799E-03
      0.465000          0.116631E-03
      0.470000          0.114496E-03
      0.475000          0.112371E-03
      0.480000          0.110240E-03
      0.485000          0.108091E-03
      0.490000          0.105915E-03
      0.495000          0.103712E-03
      0.500000          0.101484E-03
