 I_abs(s)[cm^-1]/c[mg/ml]
       0.00000          0.137979E-01
      0.500000E-02      0.137231E-01
      0.100000E-01      0.135012E-01
      0.150000E-01      0.131390E-01
      0.200000E-01      0.126477E-01
      0.250000E-01      0.120421E-01
      0.300000E-01      0.113402E-01
      0.350000E-01      0.105621E-01
      0.400000E-01      0.972896E-02
      0.450000E-01      0.886269E-02
      0.500000E-01      0.798448E-02
      0.550000E-01      0.711430E-02
      0.600000E-01      0.627009E-02
      0.650000E-01      0.546731E-02
      0.700000E-01      0.471849E-02
      0.750000E-01      0.403309E-02
      0.800000E-01      0.341746E-02
      0.850000E-01      0.287492E-02
      0.900000E-01      0.240607E-02
      0.950000E-01      0.200910E-02
      0.100000          0.168023E-02
      0.105000          0.141413E-02
      0.110000          0.120444E-02
      0.115000          0.104413E-02
      0.120000          0.925923E-03
      0.125000          0.842652E-03
      0.130000          0.787485E-03
      0.135000          0.754138E-03
      0.140000          0.737006E-03
      0.145000          0.731226E-03
      0.150000          0.732697E-03
      0.155000          0.738063E-03
      0.160000          0.744660E-03
      0.165000          0.750454E-03
      0.170000          0.753964E-03
      0.175000          0.754186E-03
      0.180000          0.750521E-03
      0.185000          0.742704E-03
      0.190000          0.730745E-03
      0.195000          0.714869E-03
      0.200000          0.695474E-03
      0.205000          0.673077E-03
      0.210000          0.648278E-03
      0.215000          0.621717E-03
      0.220000          0.594045E-03
      0.225000          0.565883E-03
      0.230000          0.537803E-03
      0.235000          0.510298E-03
      0.240000          0.483772E-03
      0.245000          0.458530E-03
      0.250000          0.434774E-03
      0.255000          0.412610E-03
      0.260000          0.392060E-03
      0.265000          0.373077E-03
      0.270000          0.355565E-03
      0.275000          0.339394E-03
      0.280000          0.324427E-03
      0.285000          0.310527E-03
      0.290000          0.297575E-03
      0.295000          0.285474E-03
      0.300000          0.274153E-03
      0.305000          0.263565E-03
      0.310000          0.253684E-03
      0.315000          0.244493E-03
      0.320000          0.235980E-03
      0.325000          0.228129E-03
      0.330000          0.220913E-03
      0.335000          0.214291E-03
      0.340000          0.208209E-03
      0.345000          0.202598E-03
      0.350000          0.197382E-03
      0.355000          0.192482E-03
      0.360000          0.187823E-03
      0.365000          0.183342E-03
      0.370000          0.178990E-03
      0.375000          0.174739E-03
      0.380000          0.170581E-03
      0.385000          0.166526E-03
      0.390000          0.162601E-03
      0.395000          0.158841E-03
      0.400000          0.155283E-03
      0.405000          0.151962E-03
      0.410000          0.148900E-03
      0.415000          0.146105E-03
      0.420000          0.143567E-03
      0.425000          0.141257E-03
      0.430000          0.139129E-03
      0.435000          0.137125E-03
      0.440000          0.135183E-03
      0.445000          0.133239E-03
      0.450000          0.131240E-03
      0.455000          0.129147E-03
      0.460000          0.126939E-03
      0.465000          0.124620E-03
      0.470000          0.122216E-03
      0.475000          0.119778E-03
      0.480000          0.117370E-03
      0.485000          0.115071E-03
      0.490000          0.112962E-03
      0.495000          0.111122E-03
      0.500000          0.109617E-03
