 I_abs(s)[cm^-1]/c[mg/ml]
       0.00000          0.138598E-01
      0.500000E-02      0.137966E-01
      0.100000E-01      0.136085E-01
      0.150000E-01      0.133006E-01
      0.200000E-01      0.128808E-01
      0.250000E-01      0.123599E-01
      0.300000E-01      0.117509E-01
      0.350000E-01      0.110690E-01
      0.400000E-01      0.103301E-01
      0.450000E-01      0.955110E-02
      0.500000E-01      0.874899E-02
      0.550000E-01      0.794015E-02
      0.600000E-01      0.713996E-02
      0.650000E-01      0.636234E-02
      0.700000E-01      0.561938E-02
      0.750000E-01      0.492107E-02
      0.800000E-01      0.427518E-02
      0.850000E-01      0.368717E-02
      0.900000E-01      0.316026E-02
      0.950000E-01      0.269559E-02
      0.100000          0.229237E-02
      0.105000          0.194821E-02
      0.110000          0.165940E-02
      0.115000          0.142123E-02
      0.120000          0.122833E-02
      0.125000          0.107494E-02
      0.130000          0.955266E-03
      0.135000          0.863646E-03
      0.140000          0.794782E-03
      0.145000          0.743874E-03
      0.150000          0.706714E-03
      0.155000          0.679733E-03
      0.160000          0.660004E-03
      0.165000          0.645210E-03
      0.170000          0.633587E-03
      0.175000          0.623850E-03
      0.180000          0.615104E-03
      0.185000          0.606759E-03
      0.190000          0.598446E-03
      0.195000          0.589941E-03
      0.200000          0.581110E-03
      0.205000          0.571856E-03
      0.210000          0.562092E-03
      0.215000          0.551722E-03
      0.220000          0.540638E-03
      0.225000          0.528723E-03
      0.230000          0.515862E-03
      0.235000          0.501958E-03
      0.240000          0.486945E-03
      0.245000          0.470804E-03
      0.250000          0.453571E-03
      0.255000          0.435345E-03
      0.260000          0.416283E-03
      0.265000          0.396601E-03
      0.270000          0.376558E-03
      0.275000          0.356448E-03
      0.280000          0.336581E-03
      0.285000          0.317267E-03
      0.290000          0.298797E-03
      0.295000          0.281435E-03
      0.300000          0.265399E-03
      0.305000          0.250853E-03
      0.310000          0.237905E-03
      0.315000          0.226603E-03
      0.320000          0.216935E-03
      0.325000          0.208839E-03
      0.330000          0.202205E-03
      0.335000          0.196887E-03
      0.340000          0.192715E-03
      0.345000          0.189501E-03
      0.350000          0.187052E-03
      0.355000          0.185180E-03
      0.360000          0.183707E-03
      0.365000          0.182472E-03
      0.370000          0.181338E-03
      0.375000          0.180192E-03
      0.380000          0.178944E-03
      0.385000          0.177533E-03
      0.390000          0.175918E-03
      0.395000          0.174081E-03
      0.400000          0.172020E-03
      0.405000          0.169748E-03
      0.410000          0.167289E-03
      0.415000          0.164674E-03
      0.420000          0.161938E-03
      0.425000          0.159119E-03
      0.430000          0.156254E-03
      0.435000          0.153377E-03
      0.440000          0.150520E-03
      0.445000          0.147710E-03
      0.450000          0.144969E-03
      0.455000          0.142314E-03
      0.460000          0.139756E-03
      0.465000          0.137302E-03
      0.470000          0.134954E-03
      0.475000          0.132708E-03
      0.480000          0.130559E-03
      0.485000          0.128495E-03
      0.490000          0.126503E-03
      0.495000          0.124568E-03
      0.500000          0.122672E-03
