 I_abs(s)[cm^-1]/c[mg/ml]
       0.00000          0.136897E-01
      0.500000E-02      0.135848E-01
      0.100000E-01      0.132749E-01
      0.150000E-01      0.127742E-01
      0.200000E-01      0.121050E-01
      0.250000E-01      0.112966E-01
      0.300000E-01      0.103831E-01
      0.350000E-01      0.940106E-02
      0.400000E-01      0.838753E-02
      0.450000E-01      0.737765E-02
      0.500000E-01      0.640281E-02
      0.550000E-01      0.548921E-02
      0.600000E-01      0.465683E-02
      0.650000E-01      0.391902E-02
      0.700000E-01      0.328252E-02
      0.750000E-01      0.274803E-02
      0.800000E-01      0.231113E-02
      0.850000E-01      0.196336E-02
      0.900000E-01      0.169355E-02
      0.950000E-01      0.148909E-02
      0.100000          0.133703E-02
      0.105000          0.122513E-02
      0.110000          0.114247E-02
      0.115000          0.108000E-02
      0.120000          0.103063E-02
      0.125000          0.989276E-03
      0.130000          0.952563E-03
      0.135000          0.918550E-03
      0.140000          0.886318E-03
      0.145000          0.855598E-03
      0.150000          0.826432E-03
      0.155000          0.798916E-03
      0.160000          0.773034E-03
      0.165000          0.748583E-03
      0.170000          0.725173E-03
      0.175000          0.702287E-03
      0.180000          0.679377E-03
      0.185000          0.655959E-03
      0.190000          0.631712E-03
      0.195000          0.606528E-03
      0.200000          0.580547E-03
      0.205000          0.554138E-03
      0.210000          0.527857E-03
      0.215000          0.502371E-03
      0.220000          0.478380E-03
      0.225000          0.456527E-03
      0.230000          0.437326E-03
      0.235000          0.421109E-03
      0.240000          0.407985E-03
      0.245000          0.397844E-03
      0.250000          0.390366E-03
      0.255000          0.385061E-03
      0.260000          0.381320E-03
      0.265000          0.378473E-03
      0.270000          0.375850E-03
      0.275000          0.372829E-03
      0.280000          0.368889E-03
      0.285000          0.363634E-03
      0.290000          0.356815E-03
      0.295000          0.348336E-03
      0.300000          0.338241E-03
      0.305000          0.326702E-03
      0.310000          0.313990E-03
      0.315000          0.300445E-03
      0.320000          0.286448E-03
      0.325000          0.272386E-03
      0.330000          0.258629E-03
      0.335000          0.245502E-03
      0.340000          0.233271E-03
      0.345000          0.222131E-03
      0.350000          0.212199E-03
      0.355000          0.203516E-03
      0.360000          0.196055E-03
      0.365000          0.189729E-03
      0.370000          0.184404E-03
      0.375000          0.179921E-03
      0.380000          0.176102E-03
      0.385000          0.172774E-03
      0.390000          0.169777E-03
      0.395000          0.166978E-03
      0.400000          0.164274E-03
      0.405000          0.161598E-03
      0.410000          0.158917E-03
      0.415000          0.156227E-03
      0.420000          0.153551E-03
      0.425000          0.150924E-03
      0.430000          0.148389E-03
      0.435000          0.145987E-03
      0.440000          0.143750E-03
      0.445000          0.141693E-03
      0.450000          0.139816E-03
      0.455000          0.138096E-03
      0.460000          0.136498E-03
      0.465000          0.134972E-03
      0.470000          0.133461E-03
      0.475000          0.131907E-03
      0.480000          0.130259E-03
      0.485000          0.128475E-03
      0.490000          0.126531E-03
      0.495000          0.124420E-03
      0.500000          0.122153E-03
