 I_abs(s)[cm^-1]/c[mg/ml]
       0.00000          0.140622E-01
      0.500000E-02      0.139967E-01
      0.100000E-01      0.138019E-01
      0.150000E-01      0.134831E-01
      0.200000E-01      0.130490E-01
      0.250000E-01      0.125110E-01
      0.300000E-01      0.118831E-01
      0.350000E-01      0.111810E-01
      0.400000E-01      0.104219E-01
      0.450000E-01      0.962345E-02
      0.500000E-01      0.880324E-02
      0.550000E-01      0.797825E-02
      0.600000E-01      0.716425E-02
      0.650000E-01      0.637534E-02
      0.700000E-01      0.562362E-02
      0.750000E-01      0.491895E-02
      0.800000E-01      0.426882E-02
      0.850000E-01      0.367834E-02
      0.900000E-01      0.315032E-02
      0.950000E-01      0.268549E-02
      0.100000          0.228270E-02
      0.105000          0.193926E-02
      0.110000          0.165122E-02
      0.115000          0.141374E-02
      0.120000          0.122138E-02
      0.125000          0.106844E-02
      0.130000          0.949167E-03
      0.135000          0.858013E-03
      0.140000          0.789784E-03
      0.145000          0.739765E-03
      0.150000          0.703793E-03
      0.155000          0.678290E-03
      0.160000          0.660262E-03
      0.165000          0.647271E-03
      0.170000          0.637384E-03
      0.175000          0.629118E-03
      0.180000          0.621370E-03
      0.185000          0.613351E-03
      0.190000          0.604530E-03
      0.195000          0.594572E-03
      0.200000          0.583292E-03
      0.205000          0.570621E-03
      0.210000          0.556572E-03
      0.215000          0.541218E-03
      0.220000          0.524677E-03
      0.225000          0.507100E-03
      0.230000          0.488660E-03
      0.235000          0.469552E-03
      0.240000          0.449979E-03
      0.245000          0.430156E-03
      0.250000          0.410301E-03
      0.255000          0.390631E-03
      0.260000          0.371356E-03
      0.265000          0.352677E-03
      0.270000          0.334781E-03
      0.275000          0.317832E-03
      0.280000          0.301974E-03
      0.285000          0.287324E-03
      0.290000          0.273970E-03
      0.295000          0.261970E-03
      0.300000          0.251352E-03
      0.305000          0.242113E-03
      0.310000          0.234222E-03
      0.315000          0.227620E-03
      0.320000          0.222222E-03
      0.325000          0.217920E-03
      0.330000          0.214588E-03
      0.335000          0.212086E-03
      0.340000          0.210261E-03
      0.345000          0.208954E-03
      0.350000          0.208005E-03
      0.355000          0.207258E-03
      0.360000          0.206564E-03
      0.365000          0.205786E-03
      0.370000          0.204804E-03
      0.375000          0.203517E-03
      0.380000          0.201845E-03
      0.385000          0.199732E-03
      0.390000          0.197146E-03
      0.395000          0.194078E-03
      0.400000          0.190540E-03
      0.405000          0.186563E-03
      0.410000          0.182197E-03
      0.415000          0.177504E-03
      0.420000          0.172553E-03
      0.425000          0.167421E-03
      0.430000          0.162186E-03
      0.435000          0.156924E-03
      0.440000          0.151704E-03
      0.445000          0.146593E-03
      0.450000          0.141643E-03
      0.455000          0.136900E-03
      0.460000          0.132400E-03
      0.465000          0.128167E-03
      0.470000          0.124216E-03
      0.475000          0.120555E-03
      0.480000          0.117185E-03
      0.485000          0.114103E-03
      0.490000          0.111299E-03
      0.495000          0.108764E-03
      0.500000          0.106487E-03
