 I_abs(s)[cm^-1]/c[mg/ml]
       0.00000          0.144634E-01
      0.500000E-02      0.144096E-01
      0.100000E-01      0.142494E-01
      0.150000E-01      0.139862E-01
      0.200000E-01      0.136257E-01
      0.250000E-01      0.131753E-01
      0.300000E-01      0.126444E-01
      0.350000E-01      0.120437E-01
      0.400000E-01      0.113850E-01
      0.450000E-01      0.106809E-01
      0.500000E-01      0.994413E-02
      0.550000E-01      0.918763E-02
      0.600000E-01      0.842383E-02
      0.650000E-01      0.766448E-02
      0.700000E-01      0.692036E-02
      0.750000E-01      0.620106E-02
      0.800000E-01      0.551478E-02
      0.850000E-01      0.486826E-02
      0.900000E-01      0.426670E-02
      0.950000E-01      0.371376E-02
      0.100000          0.321165E-02
      0.105000          0.276118E-02
      0.110000          0.236196E-02
      0.115000          0.201249E-02
      0.120000          0.171039E-02
      0.125000          0.145259E-02
      0.130000          0.123548E-02
      0.135000          0.105510E-02
      0.140000          0.907354E-03
      0.145000          0.788088E-03
      0.150000          0.693259E-03
      0.155000          0.619021E-03
      0.160000          0.561801E-03
      0.165000          0.518357E-03
      0.170000          0.485807E-03
      0.175000          0.461641E-03
      0.180000          0.443723E-03
      0.185000          0.430267E-03
      0.190000          0.419823E-03
      0.195000          0.411236E-03
      0.200000          0.403620E-03
      0.205000          0.396319E-03
      0.210000          0.388870E-03
      0.215000          0.380974E-03
      0.220000          0.372465E-03
      0.225000          0.363282E-03
      0.230000          0.353445E-03
      0.235000          0.343036E-03
      0.240000          0.332178E-03
      0.245000          0.321025E-03
      0.250000          0.309745E-03
      0.255000          0.298509E-03
      0.260000          0.287484E-03
      0.265000          0.276823E-03
      0.270000          0.266660E-03
      0.275000          0.257104E-03
      0.280000          0.248236E-03
      0.285000          0.240108E-03
      0.290000          0.232741E-03
      0.295000          0.226127E-03
      0.300000          0.220233E-03
      0.305000          0.215000E-03
      0.310000          0.210354E-03
      0.315000          0.206206E-03
      0.320000          0.202463E-03
      0.325000          0.199026E-03
      0.330000          0.195805E-03
      0.335000          0.192715E-03
      0.340000          0.189684E-03
      0.345000          0.186656E-03
      0.350000          0.183591E-03
      0.355000          0.180465E-03
      0.360000          0.177272E-03
      0.365000          0.174018E-03
      0.370000          0.170721E-03
      0.375000          0.167408E-03
      0.380000          0.164113E-03
      0.385000          0.160869E-03
      0.390000          0.157711E-03
      0.395000          0.154669E-03
      0.400000          0.151768E-03
      0.405000          0.149026E-03
      0.410000          0.146453E-03
      0.415000          0.144055E-03
      0.420000          0.141826E-03
      0.425000          0.139759E-03
      0.430000          0.137838E-03
      0.435000          0.136047E-03
      0.440000          0.134368E-03
      0.445000          0.132782E-03
      0.450000          0.131272E-03
      0.455000          0.129821E-03
      0.460000          0.128416E-03
      0.465000          0.127047E-03
      0.470000          0.125707E-03
      0.475000          0.124389E-03
      0.480000          0.123091E-03
      0.485000          0.121810E-03
      0.490000          0.120545E-03
      0.495000          0.119294E-03
      0.500000          0.118054E-03
