 I_abs(s)[cm^-1]/c[mg/ml]
       0.00000          0.132236E-01
      0.500000E-02      0.130901E-01
      0.100000E-01      0.126980E-01
      0.150000E-01      0.120715E-01
      0.200000E-01      0.112482E-01
      0.250000E-01      0.102760E-01
      0.300000E-01      0.920851E-02
      0.350000E-01      0.810047E-02
      0.400000E-01      0.700340E-02
      0.450000E-01      0.596178E-02
      0.500000E-01      0.501032E-02
      0.550000E-01      0.417249E-02
      0.600000E-01      0.346019E-02
      0.650000E-01      0.287468E-02
      0.700000E-01      0.240841E-02
      0.750000E-01      0.204743E-02
      0.800000E-01      0.177402E-02
      0.850000E-01      0.156923E-02
      0.900000E-01      0.141503E-02
      0.950000E-01      0.129587E-02
      0.100000          0.119961E-02
      0.105000          0.111774E-02
      0.110000          0.104516E-02
      0.115000          0.979454E-03
      0.120000          0.920107E-03
      0.125000          0.867590E-03
      0.130000          0.822618E-03
      0.135000          0.785606E-03
      0.140000          0.756381E-03
      0.145000          0.734117E-03
      0.150000          0.717469E-03
      0.155000          0.704810E-03
      0.160000          0.694500E-03
      0.165000          0.685130E-03
      0.170000          0.675678E-03
      0.175000          0.665575E-03
      0.180000          0.654666E-03
      0.185000          0.643113E-03
      0.190000          0.631249E-03
      0.195000          0.619442E-03
      0.200000          0.607974E-03
      0.205000          0.596981E-03
      0.210000          0.586435E-03
      0.215000          0.576171E-03
      0.220000          0.565951E-03
      0.225000          0.555527E-03
      0.230000          0.544704E-03
      0.235000          0.533377E-03
      0.240000          0.521543E-03
      0.245000          0.509285E-03
      0.250000          0.496736E-03
      0.255000          0.484039E-03
      0.260000          0.471307E-03
      0.265000          0.458595E-03
      0.270000          0.445894E-03
      0.275000          0.433141E-03
      0.280000          0.420239E-03
      0.285000          0.407096E-03
      0.290000          0.393647E-03
      0.295000          0.379884E-03
      0.300000          0.365863E-03
      0.305000          0.351701E-03
      0.310000          0.337562E-03
      0.315000          0.323627E-03
      0.320000          0.310077E-03
      0.325000          0.297060E-03
      0.330000          0.284686E-03
      0.335000          0.273015E-03
      0.340000          0.262063E-03
      0.345000          0.251818E-03
      0.350000          0.242251E-03
      0.355000          0.233334E-03
      0.360000          0.225050E-03
      0.365000          0.217396E-03
      0.370000          0.210386E-03
      0.375000          0.204035E-03
      0.380000          0.198355E-03
      0.385000          0.193341E-03
      0.390000          0.188960E-03
      0.395000          0.185154E-03
      0.400000          0.181838E-03
      0.405000          0.178913E-03
      0.410000          0.176272E-03
      0.415000          0.173819E-03
      0.420000          0.171477E-03
      0.425000          0.169192E-03
      0.430000          0.166941E-03
      0.435000          0.164719E-03
      0.440000          0.162538E-03
      0.445000          0.160412E-03
      0.450000          0.158346E-03
      0.455000          0.156329E-03
      0.460000          0.154331E-03
      0.465000          0.152303E-03
      0.470000          0.150185E-03
      0.475000          0.147914E-03
      0.480000          0.145435E-03
      0.485000          0.142714E-03
      0.490000          0.139740E-03
      0.495000          0.136529E-03
      0.500000          0.133125E-03
