 I_abs(s)[cm^-1]/c[mg/ml]
       0.00000          0.136435E-01
      0.500000E-02      0.135591E-01
      0.100000E-01      0.133093E-01
      0.150000E-01      0.129042E-01
      0.200000E-01      0.123603E-01
      0.250000E-01      0.116988E-01
      0.300000E-01      0.109448E-01
      0.350000E-01      0.101253E-01
      0.400000E-01      0.926823E-02
      0.450000E-01      0.840033E-02
      0.500000E-01      0.754614E-02
      0.550000E-01      0.672674E-02
      0.600000E-01      0.595903E-02
      0.650000E-01      0.525525E-02
      0.700000E-01      0.462294E-02
      0.750000E-01      0.406517E-02
      0.800000E-01      0.358106E-02
      0.850000E-01      0.316652E-02
      0.900000E-01      0.281503E-02
      0.950000E-01      0.251862E-02
      0.100000          0.226858E-02
      0.105000          0.205632E-02
      0.110000          0.187387E-02
      0.115000          0.171436E-02
      0.120000          0.157221E-02
      0.125000          0.144327E-02
      0.130000          0.132472E-02
      0.135000          0.121488E-02
      0.140000          0.111302E-02
      0.145000          0.101904E-02
      0.150000          0.933216E-03
      0.155000          0.855955E-03
      0.160000          0.787599E-03
      0.165000          0.728284E-03
      0.170000          0.677861E-03
      0.175000          0.635872E-03
      0.180000          0.601575E-03
      0.185000          0.573994E-03
      0.190000          0.551994E-03
      0.195000          0.534368E-03
      0.200000          0.519910E-03
      0.205000          0.507492E-03
      0.210000          0.496113E-03
      0.215000          0.484940E-03
      0.220000          0.473325E-03
      0.225000          0.460813E-03
      0.230000          0.447131E-03
      0.235000          0.432173E-03
      0.240000          0.415974E-03
      0.245000          0.398682E-03
      0.250000          0.380531E-03
      0.255000          0.361812E-03
      0.260000          0.342848E-03
      0.265000          0.323968E-03
      0.270000          0.305487E-03
      0.275000          0.287697E-03
      0.280000          0.270844E-03
      0.285000          0.255131E-03
      0.290000          0.240707E-03
      0.295000          0.227670E-03
      0.300000          0.216067E-03
      0.305000          0.205899E-03
      0.310000          0.197130E-03
      0.315000          0.189691E-03
      0.320000          0.183487E-03
      0.325000          0.178406E-03
      0.330000          0.174324E-03
      0.335000          0.171110E-03
      0.340000          0.168628E-03
      0.345000          0.166747E-03
      0.350000          0.165333E-03
      0.355000          0.164261E-03
      0.360000          0.163411E-03
      0.365000          0.162673E-03
      0.370000          0.161948E-03
      0.375000          0.161147E-03
      0.380000          0.160199E-03
      0.385000          0.159048E-03
      0.390000          0.157654E-03
      0.395000          0.155995E-03
      0.400000          0.154066E-03
      0.405000          0.151877E-03
      0.410000          0.149451E-03
      0.415000          0.146821E-03
      0.420000          0.144025E-03
      0.425000          0.141107E-03
      0.430000          0.138109E-03
      0.435000          0.135073E-03
      0.440000          0.132033E-03
      0.445000          0.129021E-03
      0.450000          0.126060E-03
      0.455000          0.123167E-03
      0.460000          0.120355E-03
      0.465000          0.117630E-03
      0.470000          0.114997E-03
      0.475000          0.112458E-03
      0.480000          0.110014E-03
      0.485000          0.107664E-03
      0.490000          0.105411E-03
      0.495000          0.103255E-03
      0.500000          0.101199E-03
