 I_abs(s)[cm^-1]/c[mg/ml]
       0.00000          0.137283E-01
      0.500000E-02      0.136392E-01
      0.100000E-01      0.133753E-01
      0.150000E-01      0.129459E-01
      0.200000E-01      0.123664E-01
      0.250000E-01      0.116569E-01
      0.300000E-01      0.108417E-01
      0.350000E-01      0.994768E-02
      0.400000E-01      0.900312E-02
      0.450000E-01      0.803642E-02
      0.500000E-01      0.707475E-02
      0.550000E-01      0.614293E-02
      0.600000E-01      0.526244E-02
      0.650000E-01      0.445074E-02
      0.700000E-01      0.372081E-02
      0.750000E-01      0.308095E-02
      0.800000E-01      0.253493E-02
      0.850000E-01      0.208224E-02
      0.900000E-01      0.171870E-02
      0.950000E-01      0.143708E-02
      0.100000          0.122793E-02
      0.105000          0.108035E-02
      0.110000          0.982781E-03
      0.115000          0.923744E-03
      0.120000          0.892445E-03
      0.125000          0.879258E-03
      0.130000          0.876054E-03
      0.135000          0.876392E-03
      0.140000          0.875555E-03
      0.145000          0.870474E-03
      0.150000          0.859543E-03
      0.155000          0.842376E-03
      0.160000          0.819515E-03
      0.165000          0.792131E-03
      0.170000          0.761740E-03
      0.175000          0.729954E-03
      0.180000          0.698276E-03
      0.185000          0.667957E-03
      0.190000          0.639907E-03
      0.195000          0.614664E-03
      0.200000          0.592404E-03
      0.205000          0.572995E-03
      0.210000          0.556065E-03
      0.215000          0.541088E-03
      0.220000          0.527469E-03
      0.225000          0.514620E-03
      0.230000          0.502021E-03
      0.235000          0.489262E-03
      0.240000          0.476067E-03
      0.245000          0.462295E-03
      0.250000          0.447932E-03
      0.255000          0.433065E-03
      0.260000          0.417857E-03
      0.265000          0.402507E-03
      0.270000          0.387232E-03
      0.275000          0.372231E-03
      0.280000          0.357676E-03
      0.285000          0.343697E-03
      0.290000          0.330379E-03
      0.295000          0.317769E-03
      0.300000          0.305879E-03
      0.305000          0.294700E-03
      0.310000          0.284209E-03
      0.315000          0.274380E-03
      0.320000          0.265190E-03
      0.325000          0.256624E-03
      0.330000          0.248674E-03
      0.335000          0.241338E-03
      0.340000          0.234613E-03
      0.345000          0.228493E-03
      0.350000          0.222963E-03
      0.355000          0.217993E-03
      0.360000          0.213534E-03
      0.365000          0.209522E-03
      0.370000          0.205877E-03
      0.375000          0.202507E-03
      0.380000          0.199312E-03
      0.385000          0.196195E-03
      0.390000          0.193064E-03
      0.395000          0.189840E-03
      0.400000          0.186462E-03
      0.405000          0.182892E-03
      0.410000          0.179114E-03
      0.415000          0.175134E-03
      0.420000          0.170979E-03
      0.425000          0.166692E-03
      0.430000          0.162327E-03
      0.435000          0.157944E-03
      0.440000          0.153604E-03
      0.445000          0.149364E-03
      0.450000          0.145274E-03
      0.455000          0.141373E-03
      0.460000          0.137688E-03
      0.465000          0.134237E-03
      0.470000          0.131024E-03
      0.475000          0.128047E-03
      0.480000          0.125297E-03
      0.485000          0.122761E-03
      0.490000          0.120423E-03
      0.495000          0.118268E-03
      0.500000          0.116282E-03
