 I_abs(s)[cm^-1]/c[mg/ml]
       0.00000          0.139375E-01
      0.500000E-02      0.138622E-01
      0.100000E-01      0.136386E-01
      0.150000E-01      0.132734E-01
      0.200000E-01      0.127777E-01
      0.250000E-01      0.121662E-01
      0.300000E-01      0.114567E-01
      0.350000E-01      0.106690E-01
      0.400000E-01      0.982487E-02
      0.450000E-01      0.894619E-02
      0.500000E-01      0.805473E-02
      0.550000E-01      0.717110E-02
      0.600000E-01      0.631405E-02
      0.650000E-01      0.549987E-02
      0.700000E-01      0.474200E-02
      0.750000E-01      0.405064E-02
      0.800000E-01      0.343275E-02
      0.850000E-01      0.289201E-02
      0.900000E-01      0.242904E-02
      0.950000E-01      0.204176E-02
      0.100000          0.172573E-02
      0.105000          0.147469E-02
      0.110000          0.128106E-02
      0.115000          0.113647E-02
      0.120000          0.103223E-02
      0.125000          0.959823E-03
      0.130000          0.911233E-03
      0.135000          0.879270E-03
      0.140000          0.857765E-03
      0.145000          0.841691E-03
      0.150000          0.827200E-03
      0.155000          0.811580E-03
      0.160000          0.793157E-03
      0.165000          0.771154E-03
      0.170000          0.745518E-03
      0.175000          0.716732E-03
      0.180000          0.685637E-03
      0.185000          0.653259E-03
      0.190000          0.620667E-03
      0.195000          0.588853E-03
      0.200000          0.558648E-03
      0.205000          0.530673E-03
      0.210000          0.505317E-03
      0.215000          0.482738E-03
      0.220000          0.462891E-03
      0.225000          0.445569E-03
      0.230000          0.430443E-03
      0.235000          0.417117E-03
      0.240000          0.405174E-03
      0.245000          0.394212E-03
      0.250000          0.383876E-03
      0.255000          0.373880E-03
      0.260000          0.364017E-03
      0.265000          0.354155E-03
      0.270000          0.344237E-03
      0.275000          0.334263E-03
      0.280000          0.324276E-03
      0.285000          0.314347E-03
      0.290000          0.304553E-03
      0.295000          0.294970E-03
      0.300000          0.285661E-03
      0.305000          0.276664E-03
      0.310000          0.267998E-03
      0.315000          0.259657E-03
      0.320000          0.251618E-03
      0.325000          0.243843E-03
      0.330000          0.236290E-03
      0.335000          0.228915E-03
      0.340000          0.221679E-03
      0.345000          0.214556E-03
      0.350000          0.207533E-03
      0.355000          0.200609E-03
      0.360000          0.193799E-03
      0.365000          0.187130E-03
      0.370000          0.180638E-03
      0.375000          0.174364E-03
      0.380000          0.168352E-03
      0.385000          0.162644E-03
      0.390000          0.157277E-03
      0.395000          0.152282E-03
      0.400000          0.147682E-03
      0.405000          0.143491E-03
      0.410000          0.139716E-03
      0.415000          0.136355E-03
      0.420000          0.133400E-03
      0.425000          0.130839E-03
      0.430000          0.128655E-03
      0.435000          0.126830E-03
      0.440000          0.125341E-03
      0.445000          0.124166E-03
      0.450000          0.123277E-03
      0.455000          0.122647E-03
      0.460000          0.122244E-03
      0.465000          0.122032E-03
      0.470000          0.121971E-03
      0.475000          0.122017E-03
      0.480000          0.122121E-03
      0.485000          0.122229E-03
      0.490000          0.122287E-03
      0.495000          0.122237E-03
      0.500000          0.122024E-03
