 I_abs(s)[cm^-1]/c[mg/ml]
       0.00000          0.136974E-01
      0.500000E-02      0.135935E-01
      0.100000E-01      0.132872E-01
      0.150000E-01      0.127947E-01
      0.200000E-01      0.121413E-01
      0.250000E-01      0.113595E-01
      0.300000E-01      0.104864E-01
      0.350000E-01      0.956065E-02
      0.400000E-01      0.861984E-02
      0.450000E-01      0.769786E-02
      0.500000E-01      0.682294E-02
      0.550000E-01      0.601633E-02
      0.600000E-01      0.529173E-02
      0.650000E-01      0.465544E-02
      0.700000E-01      0.410715E-02
      0.750000E-01      0.364121E-02
      0.800000E-01      0.324820E-02
      0.850000E-01      0.291657E-02
      0.900000E-01      0.263419E-02
      0.950000E-01      0.238968E-02
      0.100000          0.217336E-02
      0.105000          0.197778E-02
      0.110000          0.179796E-02
      0.115000          0.163121E-02
      0.120000          0.147671E-02
      0.125000          0.133494E-02
      0.130000          0.120707E-02
      0.135000          0.109443E-02
      0.140000          0.997959E-03
      0.145000          0.917948E-03
      0.150000          0.853865E-03
      0.155000          0.804352E-03
      0.160000          0.767357E-03
      0.165000          0.740347E-03
      0.170000          0.720560E-03
      0.175000          0.705267E-03
      0.180000          0.691994E-03
      0.185000          0.678692E-03
      0.190000          0.663841E-03
      0.195000          0.646484E-03
      0.200000          0.626200E-03
      0.205000          0.603034E-03
      0.210000          0.577387E-03
      0.215000          0.549907E-03
      0.220000          0.521364E-03
      0.225000          0.492554E-03
      0.230000          0.464211E-03
      0.235000          0.436953E-03
      0.240000          0.411244E-03
      0.245000          0.387390E-03
      0.250000          0.365540E-03
      0.255000          0.345714E-03
      0.260000          0.327829E-03
      0.265000          0.311732E-03
      0.270000          0.297229E-03
      0.275000          0.284111E-03
      0.280000          0.272176E-03
      0.285000          0.261238E-03
      0.290000          0.251135E-03
      0.295000          0.241732E-03
      0.300000          0.232917E-03
      0.305000          0.224599E-03
      0.310000          0.216704E-03
      0.315000          0.209173E-03
      0.320000          0.201959E-03
      0.325000          0.195032E-03
      0.330000          0.188373E-03
      0.335000          0.181981E-03
      0.340000          0.175868E-03
      0.345000          0.170060E-03
      0.350000          0.164594E-03
      0.355000          0.159512E-03
      0.360000          0.154853E-03
      0.365000          0.150652E-03
      0.370000          0.146932E-03
      0.375000          0.143701E-03
      0.380000          0.140948E-03
      0.385000          0.138650E-03
      0.390000          0.136766E-03
      0.395000          0.135247E-03
      0.400000          0.134039E-03
      0.405000          0.133081E-03
      0.410000          0.132317E-03
      0.415000          0.131690E-03
      0.420000          0.131148E-03
      0.425000          0.130639E-03
      0.430000          0.130115E-03
      0.435000          0.129529E-03
      0.440000          0.128835E-03
      0.445000          0.127991E-03
      0.450000          0.126959E-03
      0.455000          0.125709E-03
      0.460000          0.124224E-03
      0.465000          0.122497E-03
      0.470000          0.120537E-03
      0.475000          0.118364E-03
      0.480000          0.116013E-03
      0.485000          0.113524E-03
      0.490000          0.110941E-03
      0.495000          0.108310E-03
      0.500000          0.105669E-03
