 I_abs(s)[cm^-1]/c[mg/ml]
       0.00000          0.130768E-01
      0.500000E-02      0.129575E-01
      0.100000E-01      0.126068E-01
      0.150000E-01      0.120456E-01
      0.200000E-01      0.113068E-01
      0.250000E-01      0.104318E-01
      0.300000E-01      0.946729E-02
      0.350000E-01      0.846111E-02
      0.400000E-01      0.745851E-02
      0.450000E-01      0.649893E-02
      0.500000E-01      0.561363E-02
      0.550000E-01      0.482435E-02
      0.600000E-01      0.414303E-02
      0.650000E-01      0.357248E-02
      0.700000E-01      0.310784E-02
      0.750000E-01      0.273853E-02
      0.800000E-01      0.245034E-02
      0.850000E-01      0.222752E-02
      0.900000E-01      0.205457E-02
      0.950000E-01      0.191753E-02
      0.100000          0.180481E-02
      0.105000          0.170757E-02
      0.110000          0.161958E-02
      0.115000          0.153693E-02
      0.120000          0.145745E-02
      0.125000          0.138020E-02
      0.130000          0.130496E-02
      0.135000          0.123184E-02
      0.140000          0.116104E-02
      0.145000          0.109274E-02
      0.150000          0.102712E-02
      0.155000          0.964359E-03
      0.160000          0.904705E-03
      0.165000          0.848517E-03
      0.170000          0.796246E-03
      0.175000          0.748393E-03
      0.180000          0.705427E-03
      0.185000          0.667692E-03
      0.190000          0.635318E-03
      0.195000          0.608164E-03
      0.200000          0.585791E-03
      0.205000          0.567488E-03
      0.210000          0.552326E-03
      0.215000          0.539248E-03
      0.220000          0.527171E-03
      0.225000          0.515084E-03
      0.230000          0.502140E-03
      0.235000          0.487717E-03
      0.240000          0.471457E-03
      0.245000          0.453268E-03
      0.250000          0.433312E-03
      0.255000          0.411953E-03
      0.260000          0.389713E-03
      0.265000          0.367204E-03
      0.270000          0.345066E-03
      0.275000          0.323914E-03
      0.280000          0.304284E-03
      0.285000          0.286605E-03
      0.290000          0.271169E-03
      0.295000          0.258125E-03
      0.300000          0.247483E-03
      0.305000          0.239125E-03
      0.310000          0.232826E-03
      0.315000          0.228278E-03
      0.320000          0.225118E-03
      0.325000          0.222959E-03
      0.330000          0.221407E-03
      0.335000          0.220090E-03
      0.340000          0.218672E-03
      0.345000          0.216869E-03
      0.350000          0.214457E-03
      0.355000          0.211284E-03
      0.360000          0.207271E-03
      0.365000          0.202414E-03
      0.370000          0.196785E-03
      0.375000          0.190518E-03
      0.380000          0.183806E-03
      0.385000          0.176878E-03
      0.390000          0.169977E-03
      0.395000          0.163345E-03
      0.400000          0.157188E-03
      0.405000          0.151665E-03
      0.410000          0.146865E-03
      0.415000          0.142804E-03
      0.420000          0.139422E-03
      0.425000          0.136597E-03
      0.430000          0.134165E-03
      0.435000          0.131938E-03
      0.440000          0.129738E-03
      0.445000          0.127416E-03
      0.450000          0.124871E-03
      0.455000          0.122062E-03
      0.460000          0.119009E-03
      0.465000          0.115781E-03
      0.470000          0.112486E-03
      0.475000          0.109248E-03
      0.480000          0.106182E-03
      0.485000          0.103384E-03
      0.490000          0.100910E-03
      0.495000          0.987752E-04
      0.500000          0.969532E-04
