 I_abs(s)[cm^-1]/c[mg/ml]
       0.00000          0.139403E-01
      0.500000E-02      0.138883E-01
      0.100000E-01      0.137336E-01
      0.150000E-01      0.134799E-01
      0.200000E-01      0.131331E-01
      0.250000E-01      0.127014E-01
      0.300000E-01      0.121946E-01
      0.350000E-01      0.116241E-01
      0.400000E-01      0.110019E-01
      0.450000E-01      0.103411E-01
      0.500000E-01      0.965449E-02
      0.550000E-01      0.895481E-02
      0.600000E-01      0.825406E-02
      0.650000E-01      0.756325E-02
      0.700000E-01      0.689214E-02
      0.750000E-01      0.624900E-02
      0.800000E-01      0.564054E-02
      0.850000E-01      0.507180E-02
      0.900000E-01      0.454623E-02
      0.950000E-01      0.406570E-02
      0.100000          0.363071E-02
      0.105000          0.324050E-02
      0.110000          0.289329E-02
      0.115000          0.258648E-02
      0.120000          0.231690E-02
      0.125000          0.208098E-02
      0.130000          0.187499E-02
      0.135000          0.169518E-02
      0.140000          0.153795E-02
      0.145000          0.139994E-02
      0.150000          0.127814E-02
      0.155000          0.116991E-02
      0.160000          0.107299E-02
      0.165000          0.985551E-03
      0.170000          0.906113E-03
      0.175000          0.833535E-03
      0.180000          0.766965E-03
      0.185000          0.705780E-03
      0.190000          0.649542E-03
      0.195000          0.597939E-03
      0.200000          0.550747E-03
      0.205000          0.507786E-03
      0.210000          0.468893E-03
      0.215000          0.433900E-03
      0.220000          0.402615E-03
      0.225000          0.374819E-03
      0.230000          0.350264E-03
      0.235000          0.328673E-03
      0.240000          0.309749E-03
      0.245000          0.293182E-03
      0.250000          0.278658E-03
      0.255000          0.265871E-03
      0.260000          0.254529E-03
      0.265000          0.244362E-03
      0.270000          0.235131E-03
      0.275000          0.226627E-03
      0.280000          0.218678E-03
      0.285000          0.211149E-03
      0.290000          0.203936E-03
      0.295000          0.196971E-03
      0.300000          0.190214E-03
      0.305000          0.183647E-03
      0.310000          0.177276E-03
      0.315000          0.171116E-03
      0.320000          0.165197E-03
      0.325000          0.159548E-03
      0.330000          0.154202E-03
      0.335000          0.149187E-03
      0.340000          0.144524E-03
      0.345000          0.140225E-03
      0.350000          0.136291E-03
      0.355000          0.132716E-03
      0.360000          0.129480E-03
      0.365000          0.126557E-03
      0.370000          0.123910E-03
      0.375000          0.121499E-03
      0.380000          0.119282E-03
      0.385000          0.117212E-03
      0.390000          0.115247E-03
      0.395000          0.113346E-03
      0.400000          0.111474E-03
      0.405000          0.109600E-03
      0.410000          0.107702E-03
      0.415000          0.105764E-03
      0.420000          0.103775E-03
      0.425000          0.101734E-03
      0.430000          0.996415E-04
      0.435000          0.975054E-04
      0.440000          0.953356E-04
      0.445000          0.931444E-04
      0.450000          0.909456E-04
      0.455000          0.887533E-04
      0.460000          0.865815E-04
      0.465000          0.844431E-04
      0.470000          0.823507E-04
      0.475000          0.803154E-04
      0.480000          0.783477E-04
      0.485000          0.764577E-04
      0.490000          0.746550E-04
      0.495000          0.729491E-04
      0.500000          0.713501E-04
