 I_abs(s)[cm^-1]/c[mg/ml]
       0.00000          0.141821E-01
      0.500000E-02      0.141030E-01
      0.100000E-01      0.138686E-01
      0.150000E-01      0.134873E-01
      0.200000E-01      0.129726E-01
      0.250000E-01      0.123421E-01
      0.300000E-01      0.116170E-01
      0.350000E-01      0.108203E-01
      0.400000E-01      0.997604E-02
      0.450000E-01      0.910787E-02
      0.500000E-01      0.823810E-02
      0.550000E-01      0.738670E-02
      0.600000E-01      0.657062E-02
      0.650000E-01      0.580336E-02
      0.700000E-01      0.509475E-02
      0.750000E-01      0.445102E-02
      0.800000E-01      0.387506E-02
      0.850000E-01      0.336682E-02
      0.900000E-01      0.292389E-02
      0.950000E-01      0.254203E-02
      0.100000          0.221581E-02
      0.105000          0.193910E-02
      0.110000          0.170560E-02
      0.115000          0.150917E-02
      0.120000          0.134411E-02
      0.125000          0.120533E-02
      0.130000          0.108841E-02
      0.135000          0.989634E-03
      0.140000          0.905883E-03
      0.145000          0.834601E-03
      0.150000          0.773680E-03
      0.155000          0.721376E-03
      0.160000          0.676227E-03
      0.165000          0.636996E-03
      0.170000          0.602629E-03
      0.175000          0.572233E-03
      0.180000          0.545054E-03
      0.185000          0.520477E-03
      0.190000          0.498010E-03
      0.195000          0.477278E-03
      0.200000          0.458008E-03
      0.205000          0.440003E-03
      0.210000          0.423128E-03
      0.215000          0.407279E-03
      0.220000          0.392369E-03
      0.225000          0.378310E-03
      0.230000          0.365006E-03
      0.235000          0.352352E-03
      0.240000          0.340238E-03
      0.245000          0.328562E-03
      0.250000          0.317236E-03
      0.255000          0.306205E-03
      0.260000          0.295446E-03
      0.265000          0.284980E-03
      0.270000          0.274861E-03
      0.275000          0.265170E-03
      0.280000          0.256007E-03
      0.285000          0.247467E-03
      0.290000          0.239630E-03
      0.295000          0.232548E-03
      0.300000          0.226232E-03
      0.305000          0.220651E-03
      0.310000          0.215730E-03
      0.315000          0.211363E-03
      0.320000          0.207418E-03
      0.325000          0.203754E-03
      0.330000          0.200232E-03
      0.335000          0.196732E-03
      0.340000          0.193158E-03
      0.345000          0.189443E-03
      0.350000          0.185556E-03
      0.355000          0.181493E-03
      0.360000          0.177274E-03
      0.365000          0.172935E-03
      0.370000          0.168521E-03
      0.375000          0.164076E-03
      0.380000          0.159642E-03
      0.385000          0.155252E-03
      0.390000          0.150934E-03
      0.395000          0.146708E-03
      0.400000          0.142596E-03
      0.405000          0.138616E-03
      0.410000          0.134797E-03
      0.415000          0.131170E-03
      0.420000          0.127775E-03
      0.425000          0.124654E-03
      0.430000          0.121851E-03
      0.435000          0.119403E-03
      0.440000          0.117337E-03
      0.445000          0.115662E-03
      0.450000          0.114367E-03
      0.455000          0.113420E-03
      0.460000          0.112765E-03
      0.465000          0.112330E-03
      0.470000          0.112026E-03
      0.475000          0.111763E-03
      0.480000          0.111450E-03
      0.485000          0.111005E-03
      0.490000          0.110366E-03
      0.495000          0.109489E-03
      0.500000          0.108355E-03
