 I_abs(s)[cm^-1]/c[mg/ml]
       0.00000          0.140493E-01
      0.500000E-02      0.139791E-01
      0.100000E-01      0.137705E-01
      0.150000E-01      0.134296E-01
      0.200000E-01      0.129657E-01
      0.250000E-01      0.123918E-01
      0.300000E-01      0.117234E-01
      0.350000E-01      0.109781E-01
      0.400000E-01      0.101748E-01
      0.450000E-01      0.933318E-02
      0.500000E-01      0.847261E-02
      0.550000E-01      0.761177E-02
      0.600000E-01      0.676788E-02
      0.650000E-01      0.595620E-02
      0.700000E-01      0.518967E-02
      0.750000E-01      0.447860E-02
      0.800000E-01      0.383059E-02
      0.850000E-01      0.325048E-02
      0.900000E-01      0.274048E-02
      0.950000E-01      0.230043E-02
      0.100000          0.192807E-02
      0.105000          0.161938E-02
      0.110000          0.136904E-02
      0.115000          0.117076E-02
      0.120000          0.101773E-02
      0.125000          0.902942E-03
      0.130000          0.819522E-03
      0.135000          0.760978E-03
      0.140000          0.721399E-03
      0.145000          0.695593E-03
      0.150000          0.679155E-03
      0.155000          0.668496E-03
      0.160000          0.660812E-03
      0.165000          0.654027E-03
      0.170000          0.646711E-03
      0.175000          0.637977E-03
      0.180000          0.627375E-03
      0.185000          0.614789E-03
      0.190000          0.600339E-03
      0.195000          0.584295E-03
      0.200000          0.567008E-03
      0.205000          0.548856E-03
      0.210000          0.530202E-03
      0.215000          0.511367E-03
      0.220000          0.492620E-03
      0.225000          0.474167E-03
      0.230000          0.456158E-03
      0.235000          0.438688E-03
      0.240000          0.421813E-03
      0.245000          0.405552E-03
      0.250000          0.389900E-03
      0.255000          0.374840E-03
      0.260000          0.360342E-03
      0.265000          0.346375E-03
      0.270000          0.332913E-03
      0.275000          0.319929E-03
      0.280000          0.307407E-03
      0.285000          0.295337E-03
      0.290000          0.283721E-03
      0.295000          0.272566E-03
      0.300000          0.261889E-03
      0.305000          0.251717E-03
      0.310000          0.242080E-03
      0.315000          0.233014E-03
      0.320000          0.224555E-03
      0.325000          0.216740E-03
      0.330000          0.209599E-03
      0.335000          0.203154E-03
      0.340000          0.197419E-03
      0.345000          0.192392E-03
      0.350000          0.188053E-03
      0.355000          0.184368E-03
      0.360000          0.181286E-03
      0.365000          0.178736E-03
      0.370000          0.176635E-03
      0.375000          0.174888E-03
      0.380000          0.173393E-03
      0.385000          0.172042E-03
      0.390000          0.170730E-03
      0.395000          0.169357E-03
      0.400000          0.167833E-03
      0.405000          0.166084E-03
      0.410000          0.164049E-03
      0.415000          0.161689E-03
      0.420000          0.158985E-03
      0.425000          0.155935E-03
      0.430000          0.152558E-03
      0.435000          0.148889E-03
      0.440000          0.144978E-03
      0.445000          0.140883E-03
      0.450000          0.136672E-03
      0.455000          0.132413E-03
      0.460000          0.128177E-03
      0.465000          0.124028E-03
      0.470000          0.120028E-03
      0.475000          0.116227E-03
      0.480000          0.112668E-03
      0.485000          0.109380E-03
      0.490000          0.106386E-03
      0.495000          0.103695E-03
      0.500000          0.101308E-03
