 I_abs(s)[cm^-1]/c[mg/ml]
       0.00000          0.143943E-01
      0.500000E-02      0.143276E-01
      0.100000E-01      0.141295E-01
      0.150000E-01      0.138054E-01
      0.200000E-01      0.133642E-01
      0.250000E-01      0.128179E-01
      0.300000E-01      0.121809E-01
      0.350000E-01      0.114696E-01
      0.400000E-01      0.107015E-01
      0.450000E-01      0.989469E-02
      0.500000E-01      0.906715E-02
      0.550000E-01      0.823607E-02
      0.600000E-01      0.741728E-02
      0.650000E-01      0.662485E-02
      0.700000E-01      0.587066E-02
      0.750000E-01      0.516426E-02
      0.800000E-01      0.451272E-02
      0.850000E-01      0.392069E-02
      0.900000E-01      0.339050E-02
      0.950000E-01      0.292237E-02
      0.100000          0.251474E-02
      0.105000          0.216455E-02
      0.110000          0.186761E-02
      0.115000          0.161894E-02
      0.120000          0.141310E-02
      0.125000          0.124451E-02
      0.130000          0.110765E-02
      0.135000          0.997307E-03
      0.140000          0.908694E-03
      0.145000          0.837555E-03
      0.150000          0.780211E-03
      0.155000          0.733566E-03
      0.160000          0.695081E-03
      0.165000          0.662729E-03
      0.170000          0.634928E-03
      0.175000          0.610477E-03
      0.180000          0.588478E-03
      0.185000          0.568278E-03
      0.190000          0.549405E-03
      0.195000          0.531520E-03
      0.200000          0.514382E-03
      0.205000          0.497815E-03
      0.210000          0.481690E-03
      0.215000          0.465911E-03
      0.220000          0.450406E-03
      0.225000          0.435121E-03
      0.230000          0.420023E-03
      0.235000          0.405091E-03
      0.240000          0.390319E-03
      0.245000          0.375713E-03
      0.250000          0.361289E-03
      0.255000          0.347073E-03
      0.260000          0.333096E-03
      0.265000          0.319394E-03
      0.270000          0.306007E-03
      0.275000          0.292975E-03
      0.280000          0.280340E-03
      0.285000          0.268144E-03
      0.290000          0.256426E-03
      0.295000          0.245226E-03
      0.300000          0.234580E-03
      0.305000          0.224522E-03
      0.310000          0.215079E-03
      0.315000          0.206273E-03
      0.320000          0.198120E-03
      0.325000          0.190625E-03
      0.330000          0.183783E-03
      0.335000          0.177579E-03
      0.340000          0.171988E-03
      0.345000          0.166975E-03
      0.350000          0.162494E-03
      0.355000          0.158496E-03
      0.360000          0.154923E-03
      0.365000          0.151719E-03
      0.370000          0.148827E-03
      0.375000          0.146192E-03
      0.380000          0.143765E-03
      0.385000          0.141503E-03
      0.390000          0.139371E-03
      0.395000          0.137342E-03
      0.400000          0.135395E-03
      0.405000          0.133516E-03
      0.410000          0.131697E-03
      0.415000          0.129934E-03
      0.420000          0.128225E-03
      0.425000          0.126568E-03
      0.430000          0.124962E-03
      0.435000          0.123405E-03
      0.440000          0.121891E-03
      0.445000          0.120414E-03
      0.450000          0.118965E-03
      0.455000          0.117533E-03
      0.460000          0.116108E-03
      0.465000          0.114676E-03
      0.470000          0.113226E-03
      0.475000          0.111749E-03
      0.480000          0.110234E-03
      0.485000          0.108674E-03
      0.490000          0.107066E-03
      0.495000          0.105406E-03
      0.500000          0.103695E-03
