 I_abs(s)[cm^-1]/c[mg/ml]
       0.00000          0.140726E-01
      0.500000E-02      0.139850E-01
      0.100000E-01      0.137256E-01
      0.150000E-01      0.133045E-01
      0.200000E-01      0.127378E-01
      0.250000E-01      0.120469E-01
      0.300000E-01      0.112565E-01
      0.350000E-01      0.103940E-01
      0.400000E-01      0.948726E-02
      0.450000E-01      0.856349E-02
      0.500000E-01      0.764787E-02
      0.550000E-01      0.676245E-02
      0.600000E-01      0.592541E-02
      0.650000E-01      0.515061E-02
      0.700000E-01      0.444749E-02
      0.750000E-01      0.382124E-02
      0.800000E-01      0.327326E-02
      0.850000E-01      0.280175E-02
      0.900000E-01      0.240242E-02
      0.950000E-01      0.206921E-02
      0.100000          0.179501E-02
      0.105000          0.157225E-02
      0.110000          0.139341E-02
      0.115000          0.125137E-02
      0.120000          0.113967E-02
      0.125000          0.105256E-02
      0.130000          0.985080E-03
      0.135000          0.932981E-03
      0.140000          0.892666E-03
      0.145000          0.861088E-03
      0.150000          0.835673E-03
      0.155000          0.814255E-03
      0.160000          0.795041E-03
      0.165000          0.776581E-03
      0.170000          0.757766E-03
      0.175000          0.737821E-03
      0.180000          0.716291E-03
      0.185000          0.693017E-03
      0.190000          0.668098E-03
      0.195000          0.641830E-03
      0.200000          0.614644E-03
      0.205000          0.587029E-03
      0.210000          0.559467E-03
      0.215000          0.532370E-03
      0.220000          0.506042E-03
      0.225000          0.480664E-03
      0.230000          0.456287E-03
      0.235000          0.432865E-03
      0.240000          0.410285E-03
      0.245000          0.388413E-03
      0.250000          0.367140E-03
      0.255000          0.346417E-03
      0.260000          0.326278E-03
      0.265000          0.306850E-03
      0.270000          0.288345E-03
      0.275000          0.271032E-03
      0.280000          0.255205E-03
      0.285000          0.241142E-03
      0.290000          0.229065E-03
      0.295000          0.219109E-03
      0.300000          0.211297E-03
      0.305000          0.205536E-03
      0.310000          0.201617E-03
      0.315000          0.199240E-03
      0.320000          0.198038E-03
      0.325000          0.197617E-03
      0.330000          0.197589E-03
      0.335000          0.197604E-03
      0.340000          0.197377E-03
      0.345000          0.196703E-03
      0.350000          0.195461E-03
      0.355000          0.193607E-03
      0.360000          0.191164E-03
      0.365000          0.188199E-03
      0.370000          0.184802E-03
      0.375000          0.181066E-03
      0.380000          0.177073E-03
      0.385000          0.172878E-03
      0.390000          0.168512E-03
      0.395000          0.163979E-03
      0.400000          0.159269E-03
      0.405000          0.154367E-03
      0.410000          0.149265E-03
      0.415000          0.143976E-03
      0.420000          0.138540E-03
      0.425000          0.133027E-03
      0.430000          0.127538E-03
      0.435000          0.122192E-03
      0.440000          0.117119E-03
      0.445000          0.112446E-03
      0.450000          0.108280E-03
      0.455000          0.104698E-03
      0.460000          0.101738E-03
      0.465000          0.993935E-04
      0.470000          0.976125E-04
      0.475000          0.963061E-04
      0.480000          0.953573E-04
      0.485000          0.946342E-04
      0.490000          0.940046E-04
      0.495000          0.933500E-04
      0.500000          0.925772E-04
