 I_abs(s)[cm^-1]/c[mg/ml]
       0.00000          0.144496E-01
      0.500000E-02      0.143827E-01
      0.100000E-01      0.141839E-01
      0.150000E-01      0.138581E-01
      0.200000E-01      0.134138E-01
      0.250000E-01      0.128620E-01
      0.300000E-01      0.122164E-01
      0.350000E-01      0.114925E-01
      0.400000E-01      0.107074E-01
      0.450000E-01      0.987866E-02
      0.500000E-01      0.902430E-02
      0.550000E-01      0.816181E-02
      0.600000E-01      0.730777E-02
      0.650000E-01      0.647730E-02
      0.700000E-01      0.568371E-02
      0.750000E-01      0.493817E-02
      0.800000E-01      0.424952E-02
      0.850000E-01      0.362418E-02
      0.900000E-01      0.306615E-02
      0.950000E-01      0.257710E-02
      0.100000          0.215658E-02
      0.105000          0.180224E-02
      0.110000          0.151015E-02
      0.115000          0.127511E-02
      0.120000          0.109102E-02
      0.125000          0.951222E-03
      0.130000          0.848797E-03
      0.135000          0.776879E-03
      0.140000          0.728906E-03
      0.145000          0.698820E-03
      0.150000          0.681222E-03
      0.155000          0.671473E-03
      0.160000          0.665750E-03
      0.165000          0.661046E-03
      0.170000          0.655146E-03
      0.175000          0.646562E-03
      0.180000          0.634444E-03
      0.185000          0.618484E-03
      0.190000          0.598805E-03
      0.195000          0.575853E-03
      0.200000          0.550292E-03
      0.205000          0.522910E-03
      0.210000          0.494542E-03
      0.215000          0.465998E-03
      0.220000          0.438017E-03
      0.225000          0.411231E-03
      0.230000          0.386145E-03
      0.235000          0.363125E-03
      0.240000          0.342405E-03
      0.245000          0.324093E-03
      0.250000          0.308185E-03
      0.255000          0.294590E-03
      0.260000          0.283141E-03
      0.265000          0.273624E-03
      0.270000          0.265787E-03
      0.275000          0.259364E-03
      0.280000          0.254087E-03
      0.285000          0.249693E-03
      0.290000          0.245938E-03
      0.295000          0.242598E-03
      0.300000          0.239479E-03
      0.305000          0.236410E-03
      0.310000          0.233252E-03
      0.315000          0.229894E-03
      0.320000          0.226252E-03
      0.325000          0.222267E-03
      0.330000          0.217907E-03
      0.335000          0.213158E-03
      0.340000          0.208028E-03
      0.345000          0.202543E-03
      0.350000          0.196745E-03
      0.355000          0.190685E-03
      0.360000          0.184428E-03
      0.365000          0.178044E-03
      0.370000          0.171609E-03
      0.375000          0.165200E-03
      0.380000          0.158894E-03
      0.385000          0.152764E-03
      0.390000          0.146876E-03
      0.395000          0.141290E-03
      0.400000          0.136056E-03
      0.405000          0.131213E-03
      0.410000          0.126788E-03
      0.415000          0.122797E-03
      0.420000          0.119244E-03
      0.425000          0.116121E-03
      0.430000          0.113412E-03
      0.435000          0.111090E-03
      0.440000          0.109122E-03
      0.445000          0.107469E-03
      0.450000          0.106088E-03
      0.455000          0.104935E-03
      0.460000          0.103965E-03
      0.465000          0.103134E-03
      0.470000          0.102401E-03
      0.475000          0.101730E-03
      0.480000          0.101088E-03
      0.485000          0.100448E-03
      0.490000          0.997891E-04
      0.495000          0.990956E-04
      0.500000          0.983580E-04
