 I_abs(s)[cm^-1]/c[mg/ml]
       0.00000          0.142998E-01
      0.500000E-02      0.142371E-01
      0.100000E-01      0.140507E-01
      0.150000E-01      0.137451E-01
      0.200000E-01      0.133276E-01
      0.250000E-01      0.128082E-01
      0.300000E-01      0.121992E-01
      0.350000E-01      0.115145E-01
      0.400000E-01      0.107695E-01
      0.450000E-01      0.998033E-02
      0.500000E-01      0.916334E-02
      0.550000E-01      0.833475E-02
      0.600000E-01      0.751003E-02
      0.650000E-01      0.670348E-02
      0.700000E-01      0.592790E-02
      0.750000E-01      0.519425E-02
      0.800000E-01      0.451146E-02
      0.850000E-01      0.388633E-02
      0.900000E-01      0.332346E-02
      0.950000E-01      0.282531E-02
      0.100000          0.239233E-02
      0.105000          0.202313E-02
      0.110000          0.171474E-02
      0.115000          0.146289E-02
      0.120000          0.126226E-02
      0.125000          0.110685E-02
      0.130000          0.990243E-03
      0.135000          0.905879E-03
      0.140000          0.847338E-03
      0.145000          0.808540E-03
      0.150000          0.783925E-03
      0.155000          0.768584E-03
      0.160000          0.758348E-03
      0.165000          0.749830E-03
      0.170000          0.740432E-03
      0.175000          0.728308E-03
      0.180000          0.712313E-03
      0.185000          0.691911E-03
      0.190000          0.667087E-03
      0.195000          0.638237E-03
      0.200000          0.606058E-03
      0.205000          0.571449E-03
      0.210000          0.535411E-03
      0.215000          0.498961E-03
      0.220000          0.463066E-03
      0.225000          0.428585E-03
      0.230000          0.396230E-03
      0.235000          0.366544E-03
      0.240000          0.339892E-03
      0.245000          0.316462E-03
      0.250000          0.296282E-03
      0.255000          0.279240E-03
      0.260000          0.265110E-03
      0.265000          0.253581E-03
      0.270000          0.244291E-03
      0.275000          0.236847E-03
      0.280000          0.230861E-03
      0.285000          0.225961E-03
      0.290000          0.221814E-03
      0.295000          0.218138E-03
      0.300000          0.214702E-03
      0.305000          0.211333E-03
      0.310000          0.207915E-03
      0.315000          0.204378E-03
      0.320000          0.200695E-03
      0.325000          0.196871E-03
      0.330000          0.192935E-03
      0.335000          0.188929E-03
      0.340000          0.184901E-03
      0.345000          0.180899E-03
      0.350000          0.176963E-03
      0.355000          0.173125E-03
      0.360000          0.169407E-03
      0.365000          0.165816E-03
      0.370000          0.162351E-03
      0.375000          0.159004E-03
      0.380000          0.155759E-03
      0.385000          0.152597E-03
      0.390000          0.149500E-03
      0.395000          0.146452E-03
      0.400000          0.143439E-03
      0.405000          0.140452E-03
      0.410000          0.137488E-03
      0.415000          0.134549E-03
      0.420000          0.131639E-03
      0.425000          0.128767E-03
      0.430000          0.125943E-03
      0.435000          0.123179E-03
      0.440000          0.120484E-03
      0.445000          0.117869E-03
      0.450000          0.115340E-03
      0.455000          0.112901E-03
      0.460000          0.110555E-03
      0.465000          0.108303E-03
      0.470000          0.106142E-03
      0.475000          0.104072E-03
      0.480000          0.102089E-03
      0.485000          0.100192E-03
      0.490000          0.983789E-04
      0.495000          0.966502E-04
      0.500000          0.950068E-04
