 I_abs(s)[cm^-1]/c[mg/ml]
       0.00000          0.143785E-01
      0.500000E-02      0.142985E-01
      0.100000E-01      0.140616E-01
      0.150000E-01      0.136765E-01
      0.200000E-01      0.131573E-01
      0.250000E-01      0.125227E-01
      0.300000E-01      0.117942E-01
      0.350000E-01      0.109956E-01
      0.400000E-01      0.101512E-01
      0.450000E-01      0.928496E-02
      0.500000E-01      0.841875E-02
      0.550000E-01      0.757202E-02
      0.600000E-01      0.676090E-02
      0.650000E-01      0.599794E-02
      0.700000E-01      0.529199E-02
      0.750000E-01      0.464839E-02
      0.800000E-01      0.406934E-02
      0.850000E-01      0.355439E-02
      0.900000E-01      0.310102E-02
      0.950000E-01      0.270525E-02
      0.100000          0.236215E-02
      0.105000          0.206631E-02
      0.110000          0.181229E-02
      0.115000          0.159482E-02
      0.120000          0.140899E-02
      0.125000          0.125039E-02
      0.130000          0.111508E-02
      0.135000          0.999637E-03
      0.140000          0.901046E-03
      0.145000          0.816710E-03
      0.150000          0.744383E-03
      0.155000          0.682135E-03
      0.160000          0.628325E-03
      0.165000          0.581579E-03
      0.170000          0.540769E-03
      0.175000          0.504989E-03
      0.180000          0.473531E-03
      0.185000          0.445851E-03
      0.190000          0.421530E-03
      0.195000          0.400240E-03
      0.200000          0.381705E-03
      0.205000          0.365672E-03
      0.210000          0.351892E-03
      0.215000          0.340106E-03
      0.220000          0.330047E-03
      0.225000          0.321446E-03
      0.230000          0.314049E-03
      0.235000          0.307627E-03
      0.240000          0.301991E-03
      0.245000          0.296997E-03
      0.250000          0.292549E-03
      0.255000          0.288588E-03
      0.260000          0.285080E-03
      0.265000          0.282000E-03
      0.270000          0.279316E-03
      0.275000          0.276970E-03
      0.280000          0.274875E-03
      0.285000          0.272904E-03
      0.290000          0.270905E-03
      0.295000          0.268704E-03
      0.300000          0.266127E-03
      0.305000          0.263013E-03
      0.310000          0.259238E-03
      0.315000          0.254723E-03
      0.320000          0.249448E-03
      0.325000          0.243451E-03
      0.330000          0.236826E-03
      0.335000          0.229710E-03
      0.340000          0.222273E-03
      0.345000          0.214697E-03
      0.350000          0.207163E-03
      0.355000          0.199832E-03
      0.360000          0.192839E-03
      0.365000          0.186282E-03
      0.370000          0.180220E-03
      0.375000          0.174675E-03
      0.380000          0.169639E-03
      0.385000          0.165076E-03
      0.390000          0.160934E-03
      0.395000          0.157150E-03
      0.400000          0.153657E-03
      0.405000          0.150392E-03
      0.410000          0.147296E-03
      0.415000          0.144317E-03
      0.420000          0.141414E-03
      0.425000          0.138553E-03
      0.430000          0.135711E-03
      0.435000          0.132872E-03
      0.440000          0.130032E-03
      0.445000          0.127190E-03
      0.450000          0.124356E-03
      0.455000          0.121544E-03
      0.460000          0.118775E-03
      0.465000          0.116070E-03
      0.470000          0.113452E-03
      0.475000          0.110942E-03
      0.480000          0.108557E-03
      0.485000          0.106309E-03
      0.490000          0.104202E-03
      0.495000          0.102233E-03
      0.500000          0.100396E-03
