 I_abs(s)[cm^-1]/c[mg/ml]
       0.00000          0.145367E-01
      0.500000E-02      0.144777E-01
      0.100000E-01      0.143019E-01
      0.150000E-01      0.140135E-01
      0.200000E-01      0.136190E-01
      0.250000E-01      0.131273E-01
      0.300000E-01      0.125491E-01
      0.350000E-01      0.118971E-01
      0.400000E-01      0.111850E-01
      0.450000E-01      0.104273E-01
      0.500000E-01      0.963882E-02
      0.550000E-01      0.883435E-02
      0.600000E-01      0.802807E-02
      0.650000E-01      0.723326E-02
      0.700000E-01      0.646198E-02
      0.750000E-01      0.572473E-02
      0.800000E-01      0.503031E-02
      0.850000E-01      0.438568E-02
      0.900000E-01      0.379593E-02
      0.950000E-01      0.326425E-02
      0.100000          0.279206E-02
      0.105000          0.237912E-02
      0.110000          0.202373E-02
      0.115000          0.172296E-02
      0.120000          0.147285E-02
      0.125000          0.126870E-02
      0.130000          0.110531E-02
      0.135000          0.977203E-03
      0.140000          0.878861E-03
      0.145000          0.804917E-03
      0.150000          0.750309E-03
      0.155000          0.710414E-03
      0.160000          0.681139E-03
      0.165000          0.658979E-03
      0.170000          0.641041E-03
      0.175000          0.625044E-03
      0.180000          0.609286E-03
      0.185000          0.592603E-03
      0.190000          0.574296E-03
      0.195000          0.554068E-03
      0.200000          0.531939E-03
      0.205000          0.508169E-03
      0.210000          0.483187E-03
      0.215000          0.457515E-03
      0.220000          0.431713E-03
      0.225000          0.406329E-03
      0.230000          0.381854E-03
      0.235000          0.358700E-03
      0.240000          0.337183E-03
      0.245000          0.317509E-03
      0.250000          0.299783E-03
      0.255000          0.284012E-03
      0.260000          0.270120E-03
      0.265000          0.257966E-03
      0.270000          0.247360E-03
      0.275000          0.238086E-03
      0.280000          0.229916E-03
      0.285000          0.222630E-03
      0.290000          0.216026E-03
      0.295000          0.209931E-03
      0.300000          0.204211E-03
      0.305000          0.198767E-03
      0.310000          0.193539E-03
      0.315000          0.188501E-03
      0.320000          0.183657E-03
      0.325000          0.179030E-03
      0.330000          0.174660E-03
      0.335000          0.170589E-03
      0.340000          0.166858E-03
      0.345000          0.163499E-03
      0.350000          0.160528E-03
      0.355000          0.157946E-03
      0.360000          0.155733E-03
      0.365000          0.153851E-03
      0.370000          0.152243E-03
      0.375000          0.150841E-03
      0.380000          0.149567E-03
      0.385000          0.148339E-03
      0.390000          0.147077E-03
      0.395000          0.145708E-03
      0.400000          0.144168E-03
      0.405000          0.142411E-03
      0.410000          0.140407E-03
      0.415000          0.138144E-03
      0.420000          0.135632E-03
      0.425000          0.132896E-03
      0.430000          0.129979E-03
      0.435000          0.126936E-03
      0.440000          0.123830E-03
      0.445000          0.120731E-03
      0.450000          0.117709E-03
      0.455000          0.114829E-03
      0.460000          0.112151E-03
      0.465000          0.109725E-03
      0.470000          0.107588E-03
      0.475000          0.105763E-03
      0.480000          0.104260E-03
      0.485000          0.103074E-03
      0.490000          0.102185E-03
      0.495000          0.101565E-03
      0.500000          0.101172E-03
