 I_abs(s)[cm^-1]/c[mg/ml]
       0.00000          0.142291E-01
      0.500000E-02      0.141551E-01
      0.100000E-01      0.139356E-01
      0.150000E-01      0.135774E-01
      0.200000E-01      0.130916E-01
      0.250000E-01      0.124930E-01
      0.300000E-01      0.117993E-01
      0.350000E-01      0.110302E-01
      0.400000E-01      0.102069E-01
      0.450000E-01      0.935059E-02
      0.500000E-01      0.848197E-02
      0.550000E-01      0.762033E-02
      0.600000E-01      0.678291E-02
      0.650000E-01      0.598436E-02
      0.700000E-01      0.523642E-02
      0.750000E-01      0.454780E-02
      0.800000E-01      0.392411E-02
      0.850000E-01      0.336813E-02
      0.900000E-01      0.288002E-02
      0.950000E-01      0.245776E-02
      0.100000          0.209754E-02
      0.105000          0.179428E-02
      0.110000          0.154205E-02
      0.115000          0.133451E-02
      0.120000          0.116527E-02
      0.125000          0.102820E-02
      0.130000          0.917639E-03
      0.135000          0.828553E-03
      0.140000          0.756614E-03
      0.145000          0.698212E-03
      0.150000          0.650430E-03
      0.155000          0.610973E-03
      0.160000          0.578085E-03
      0.165000          0.550447E-03
      0.170000          0.527084E-03
      0.175000          0.507273E-03
      0.180000          0.490464E-03
      0.185000          0.476222E-03
      0.190000          0.464178E-03
      0.195000          0.453998E-03
      0.200000          0.445366E-03
      0.205000          0.437974E-03
      0.210000          0.431521E-03
      0.215000          0.425715E-03
      0.220000          0.420281E-03
      0.225000          0.414964E-03
      0.230000          0.409536E-03
      0.235000          0.403798E-03
      0.240000          0.397587E-03
      0.245000          0.390773E-03
      0.250000          0.383262E-03
      0.255000          0.374992E-03
      0.260000          0.365938E-03
      0.265000          0.356101E-03
      0.270000          0.345515E-03
      0.275000          0.334235E-03
      0.280000          0.322342E-03
      0.285000          0.309936E-03
      0.290000          0.297133E-03
      0.295000          0.284059E-03
      0.300000          0.270851E-03
      0.305000          0.257647E-03
      0.310000          0.244586E-03
      0.315000          0.231805E-03
      0.320000          0.219430E-03
      0.325000          0.207577E-03
      0.330000          0.196351E-03
      0.335000          0.185835E-03
      0.340000          0.176099E-03
      0.345000          0.167190E-03
      0.350000          0.159135E-03
      0.355000          0.151942E-03
      0.360000          0.145595E-03
      0.365000          0.140063E-03
      0.370000          0.135295E-03
      0.375000          0.131225E-03
      0.380000          0.127776E-03
      0.385000          0.124863E-03
      0.390000          0.122394E-03
      0.395000          0.120281E-03
      0.400000          0.118435E-03
      0.405000          0.116776E-03
      0.410000          0.115235E-03
      0.415000          0.113752E-03
      0.420000          0.112285E-03
      0.425000          0.110803E-03
      0.430000          0.109289E-03
      0.435000          0.107739E-03
      0.440000          0.106160E-03
      0.445000          0.104565E-03
      0.450000          0.102972E-03
      0.455000          0.101404E-03
      0.460000          0.998800E-04
      0.465000          0.984175E-04
      0.470000          0.970298E-04
      0.475000          0.957245E-04
      0.480000          0.945035E-04
      0.485000          0.933628E-04
      0.490000          0.922933E-04
      0.495000          0.912818E-04
      0.500000          0.903126E-04
