 I_abs(s)[cm^-1]/c[mg/ml]
       0.00000          0.142841E-01
      0.500000E-02      0.142014E-01
      0.100000E-01      0.139561E-01
      0.150000E-01      0.135564E-01
      0.200000E-01      0.130157E-01
      0.250000E-01      0.123516E-01
      0.300000E-01      0.115852E-01
      0.350000E-01      0.107399E-01
      0.400000E-01      0.984070E-02
      0.450000E-01      0.891246E-02
      0.500000E-01      0.797925E-02
      0.550000E-01      0.706321E-02
      0.600000E-01      0.618376E-02
      0.650000E-01      0.535699E-02
      0.700000E-01      0.459529E-02
      0.750000E-01      0.390718E-02
      0.800000E-01      0.329742E-02
      0.850000E-01      0.276724E-02
      0.900000E-01      0.231479E-02
      0.950000E-01      0.193571E-02
      0.100000          0.162370E-02
      0.105000          0.137121E-02
      0.110000          0.117004E-02
      0.115000          0.101188E-02
      0.120000          0.888798E-03
      0.125000          0.793598E-03
      0.130000          0.720036E-03
      0.135000          0.662956E-03
      0.140000          0.618299E-03
      0.145000          0.583027E-03
      0.150000          0.554987E-03
      0.155000          0.532727E-03
      0.160000          0.515299E-03
      0.165000          0.502066E-03
      0.170000          0.492537E-03
      0.175000          0.486232E-03
      0.180000          0.482597E-03
      0.185000          0.480960E-03
      0.190000          0.480535E-03
      0.195000          0.480451E-03
      0.200000          0.479819E-03
      0.205000          0.477798E-03
      0.210000          0.473671E-03
      0.215000          0.466912E-03
      0.220000          0.457227E-03
      0.225000          0.444584E-03
      0.230000          0.429211E-03
      0.235000          0.411570E-03
      0.240000          0.392311E-03
      0.245000          0.372214E-03
      0.250000          0.352116E-03
      0.255000          0.332840E-03
      0.260000          0.315128E-03
      0.265000          0.299586E-03
      0.270000          0.286641E-03
      0.275000          0.276521E-03
      0.280000          0.269248E-03
      0.285000          0.264650E-03
      0.290000          0.262390E-03
      0.295000          0.262005E-03
      0.300000          0.262949E-03
      0.305000          0.264642E-03
      0.310000          0.266517E-03
      0.315000          0.268055E-03
      0.320000          0.268820E-03
      0.325000          0.268482E-03
      0.330000          0.266823E-03
      0.335000          0.263743E-03
      0.340000          0.259248E-03
      0.345000          0.253434E-03
      0.350000          0.246473E-03
      0.355000          0.238585E-03
      0.360000          0.230018E-03
      0.365000          0.221025E-03
      0.370000          0.211852E-03
      0.375000          0.202718E-03
      0.380000          0.193811E-03
      0.385000          0.185280E-03
      0.390000          0.177239E-03
      0.395000          0.169764E-03
      0.400000          0.162902E-03
      0.405000          0.156674E-03
      0.410000          0.151084E-03
      0.415000          0.146119E-03
      0.420000          0.141760E-03
      0.425000          0.137979E-03
      0.430000          0.134747E-03
      0.435000          0.132027E-03
      0.440000          0.129781E-03
      0.445000          0.127962E-03
      0.450000          0.126521E-03
      0.455000          0.125398E-03
      0.460000          0.124528E-03
      0.465000          0.123841E-03
      0.470000          0.123261E-03
      0.475000          0.122711E-03
      0.480000          0.122116E-03
      0.485000          0.121405E-03
      0.490000          0.120518E-03
      0.495000          0.119405E-03
      0.500000          0.118033E-03
