 I_abs(s)[cm^-1]/c[mg/ml]
       0.00000          0.142605E-01
      0.500000E-02      0.141909E-01
      0.100000E-01      0.139840E-01
      0.150000E-01      0.136461E-01
      0.200000E-01      0.131868E-01
      0.250000E-01      0.126195E-01
      0.300000E-01      0.119600E-01
      0.350000E-01      0.112261E-01
      0.400000E-01      0.104370E-01
      0.450000E-01      0.961237E-02
      0.500000E-01      0.877156E-02
      0.550000E-01      0.793285E-02
      0.600000E-01      0.711291E-02
      0.650000E-01      0.632625E-02
      0.700000E-01      0.558484E-02
      0.750000E-01      0.489791E-02
      0.800000E-01      0.427186E-02
      0.850000E-01      0.371033E-02
      0.900000E-01      0.321439E-02
      0.950000E-01      0.278283E-02
      0.100000          0.241253E-02
      0.105000          0.209889E-02
      0.110000          0.183627E-02
      0.115000          0.161840E-02
      0.120000          0.143877E-02
      0.125000          0.129101E-02
      0.130000          0.116916E-02
      0.135000          0.106787E-02
      0.140000          0.982536E-03
      0.145000          0.909387E-03
      0.150000          0.845460E-03
      0.155000          0.788563E-03
      0.160000          0.737181E-03
      0.165000          0.690354E-03
      0.170000          0.647549E-03
      0.175000          0.608525E-03
      0.180000          0.573210E-03
      0.185000          0.541600E-03
      0.190000          0.513668E-03
      0.195000          0.489313E-03
      0.200000          0.468329E-03
      0.205000          0.450388E-03
      0.210000          0.435060E-03
      0.215000          0.421830E-03
      0.220000          0.410140E-03
      0.225000          0.399422E-03
      0.230000          0.389139E-03
      0.235000          0.378821E-03
      0.240000          0.368090E-03
      0.245000          0.356676E-03
      0.250000          0.344430E-03
      0.255000          0.331317E-03
      0.260000          0.317411E-03
      0.265000          0.302873E-03
      0.270000          0.287936E-03
      0.275000          0.272876E-03
      0.280000          0.257990E-03
      0.285000          0.243573E-03
      0.290000          0.229897E-03
      0.295000          0.217197E-03
      0.300000          0.205657E-03
      0.305000          0.195405E-03
      0.310000          0.186508E-03
      0.315000          0.178978E-03
      0.320000          0.172773E-03
      0.325000          0.167806E-03
      0.330000          0.163953E-03
      0.335000          0.161067E-03
      0.340000          0.158979E-03
      0.345000          0.157519E-03
      0.350000          0.156515E-03
      0.355000          0.155806E-03
      0.360000          0.155244E-03
      0.365000          0.154702E-03
      0.370000          0.154074E-03
      0.375000          0.153278E-03
      0.380000          0.152256E-03
      0.385000          0.150973E-03
      0.390000          0.149414E-03
      0.395000          0.147585E-03
      0.400000          0.145506E-03
      0.405000          0.143209E-03
      0.410000          0.140738E-03
      0.415000          0.138140E-03
      0.420000          0.135467E-03
      0.425000          0.132769E-03
      0.430000          0.130093E-03
      0.435000          0.127484E-03
      0.440000          0.124976E-03
      0.445000          0.122600E-03
      0.450000          0.120376E-03
      0.455000          0.118318E-03
      0.460000          0.116432E-03
      0.465000          0.114716E-03
      0.470000          0.113164E-03
      0.475000          0.111764E-03
      0.480000          0.110503E-03
      0.485000          0.109363E-03
      0.490000          0.108328E-03
      0.495000          0.107379E-03
      0.500000          0.106499E-03
