 I_abs(s)[cm^-1]/c[mg/ml]
       0.00000          0.140103E-01
      0.500000E-02      0.139397E-01
      0.100000E-01      0.137299E-01
      0.150000E-01      0.133871E-01
      0.200000E-01      0.129213E-01
      0.250000E-01      0.123458E-01
      0.300000E-01      0.116767E-01
      0.350000E-01      0.109324E-01
      0.400000E-01      0.101322E-01
      0.450000E-01      0.929629E-02
      0.500000E-01      0.844448E-02
      0.550000E-01      0.759563E-02
      0.600000E-01      0.676696E-02
      0.650000E-01      0.597358E-02
      0.700000E-01      0.522804E-02
      0.750000E-01      0.454012E-02
      0.800000E-01      0.391669E-02
      0.850000E-01      0.336178E-02
      0.900000E-01      0.287673E-02
      0.950000E-01      0.246047E-02
      0.100000          0.210983E-02
      0.105000          0.182002E-02
      0.110000          0.158500E-02
      0.115000          0.139792E-02
      0.120000          0.125158E-02
      0.125000          0.113874E-02
      0.130000          0.105248E-02
      0.135000          0.986431E-03
      0.140000          0.934966E-03
      0.145000          0.893304E-03
      0.150000          0.857565E-03
      0.155000          0.824765E-03
      0.160000          0.792760E-03
      0.165000          0.760165E-03
      0.170000          0.726241E-03
      0.175000          0.690773E-03
      0.180000          0.653943E-03
      0.185000          0.616215E-03
      0.190000          0.578221E-03
      0.195000          0.540673E-03
      0.200000          0.504278E-03
      0.205000          0.469688E-03
      0.210000          0.437455E-03
      0.215000          0.408003E-03
      0.220000          0.381619E-03
      0.225000          0.358452E-03
      0.230000          0.338515E-03
      0.235000          0.321704E-03
      0.240000          0.307810E-03
      0.245000          0.296542E-03
      0.250000          0.287546E-03
      0.255000          0.280425E-03
      0.260000          0.274760E-03
      0.265000          0.270131E-03
      0.270000          0.266130E-03
      0.275000          0.262381E-03
      0.280000          0.258551E-03
      0.285000          0.254362E-03
      0.290000          0.249597E-03
      0.295000          0.244110E-03
      0.300000          0.237818E-03
      0.305000          0.230709E-03
      0.310000          0.222834E-03
      0.315000          0.214295E-03
      0.320000          0.205242E-03
      0.325000          0.195858E-03
      0.330000          0.186345E-03
      0.335000          0.176914E-03
      0.340000          0.167771E-03
      0.345000          0.159104E-03
      0.350000          0.151078E-03
      0.355000          0.143822E-03
      0.360000          0.137430E-03
      0.365000          0.131953E-03
      0.370000          0.127403E-03
      0.375000          0.123757E-03
      0.380000          0.120957E-03
      0.385000          0.118918E-03
      0.390000          0.117536E-03
      0.395000          0.116695E-03
      0.400000          0.116273E-03
      0.405000          0.116150E-03
      0.410000          0.116212E-03
      0.415000          0.116358E-03
      0.420000          0.116500E-03
      0.425000          0.116570E-03
      0.430000          0.116516E-03
      0.435000          0.116302E-03
      0.440000          0.115912E-03
      0.445000          0.115341E-03
      0.450000          0.114598E-03
      0.455000          0.113700E-03
      0.460000          0.112672E-03
      0.465000          0.111543E-03
      0.470000          0.110344E-03
      0.475000          0.109107E-03
      0.480000          0.107863E-03
      0.485000          0.106640E-03
      0.490000          0.105464E-03
      0.495000          0.104355E-03
      0.500000          0.103332E-03
