 I_abs(s)[cm^-1]/c[mg/ml]
       0.00000          0.128969E-01
      0.500000E-02      0.127598E-01
      0.100000E-01      0.123593E-01
      0.150000E-01      0.117258E-01
      0.200000E-01      0.109058E-01
      0.250000E-01      0.995619E-02
      0.300000E-01      0.893699E-02
      0.350000E-01      0.790546E-02
      0.400000E-01      0.691045E-02
      0.450000E-01      0.598898E-02
      0.500000E-01      0.516469E-02
      0.550000E-01      0.444841E-02
      0.600000E-01      0.384012E-02
      0.650000E-01      0.333195E-02
      0.700000E-01      0.291126E-02
      0.750000E-01      0.256356E-02
      0.800000E-01      0.227468E-02
      0.850000E-01      0.203218E-02
      0.900000E-01      0.182595E-02
      0.950000E-01      0.164831E-02
      0.100000          0.149370E-02
      0.105000          0.135828E-02
      0.110000          0.123951E-02
      0.115000          0.113580E-02
      0.120000          0.104620E-02
      0.125000          0.970168E-03
      0.130000          0.907307E-03
      0.135000          0.857128E-03
      0.140000          0.818825E-03
      0.145000          0.791123E-03
      0.150000          0.772241E-03
      0.155000          0.759969E-03
      0.160000          0.751870E-03
      0.165000          0.745550E-03
      0.170000          0.738930E-03
      0.175000          0.730464E-03
      0.180000          0.719250E-03
      0.185000          0.705009E-03
      0.190000          0.687969E-03
      0.195000          0.668663E-03
      0.200000          0.647727E-03
      0.205000          0.625719E-03
      0.210000          0.603015E-03
      0.215000          0.579783E-03
      0.220000          0.556025E-03
      0.225000          0.531666E-03
      0.230000          0.506654E-03
      0.235000          0.481049E-03
      0.240000          0.455072E-03
      0.245000          0.429113E-03
      0.250000          0.403707E-03
      0.255000          0.379468E-03
      0.260000          0.357020E-03
      0.265000          0.336920E-03
      0.270000          0.319589E-03
      0.275000          0.305258E-03
      0.280000          0.293946E-03
      0.285000          0.285450E-03
      0.290000          0.279370E-03
      0.295000          0.275151E-03
      0.300000          0.272153E-03
      0.305000          0.269718E-03
      0.310000          0.267240E-03
      0.315000          0.264228E-03
      0.320000          0.260341E-03
      0.325000          0.255403E-03
      0.330000          0.249390E-03
      0.335000          0.242402E-03
      0.340000          0.234623E-03
      0.345000          0.226275E-03
      0.350000          0.217586E-03
      0.355000          0.208760E-03
      0.360000          0.199966E-03
      0.365000          0.191332E-03
      0.370000          0.182947E-03
      0.375000          0.174871E-03
      0.380000          0.167141E-03
      0.385000          0.159780E-03
      0.390000          0.152799E-03
      0.395000          0.146212E-03
      0.400000          0.140032E-03
      0.405000          0.134276E-03
      0.410000          0.128965E-03
      0.415000          0.124123E-03
      0.420000          0.119765E-03
      0.425000          0.115892E-03
      0.430000          0.112486E-03
      0.435000          0.109502E-03
      0.440000          0.106871E-03
      0.445000          0.104512E-03
      0.450000          0.102338E-03
      0.455000          0.100275E-03
      0.460000          0.982719E-04
      0.465000          0.963117E-04
      0.470000          0.944081E-04
      0.475000          0.926009E-04
      0.480000          0.909423E-04
      0.485000          0.894825E-04
      0.490000          0.882553E-04
      0.495000          0.872687E-04
      0.500000          0.865023E-04
