 I_abs(s)[cm^-1]/c[mg/ml]
       0.00000          0.141821E-01
      0.500000E-02      0.141112E-01
      0.100000E-01      0.139004E-01
      0.150000E-01      0.135556E-01
      0.200000E-01      0.130862E-01
      0.250000E-01      0.125049E-01
      0.300000E-01      0.118271E-01
      0.350000E-01      0.110702E-01
      0.400000E-01      0.102533E-01
      0.450000E-01      0.939619E-02
      0.500000E-01      0.851851E-02
      0.550000E-01      0.763940E-02
      0.600000E-01      0.677667E-02
      0.650000E-01      0.594630E-02
      0.700000E-01      0.516199E-02
      0.750000E-01      0.443488E-02
      0.800000E-01      0.377328E-02
      0.850000E-01      0.318272E-02
      0.900000E-01      0.266593E-02
      0.950000E-01      0.222303E-02
      0.100000          0.185184E-02
      0.105000          0.154819E-02
      0.110000          0.130633E-02
      0.115000          0.111936E-02
      0.120000          0.979652E-03
      0.125000          0.879266E-03
      0.130000          0.810337E-03
      0.135000          0.765391E-03
      0.140000          0.737616E-03
      0.145000          0.721053E-03
      0.150000          0.710724E-03
      0.155000          0.702688E-03
      0.160000          0.694033E-03
      0.165000          0.682814E-03
      0.170000          0.667953E-03
      0.175000          0.649100E-03
      0.180000          0.626483E-03
      0.185000          0.600745E-03
      0.190000          0.572791E-03
      0.195000          0.543642E-03
      0.200000          0.514317E-03
      0.205000          0.485737E-03
      0.210000          0.458651E-03
      0.215000          0.433603E-03
      0.220000          0.410909E-03
      0.225000          0.390671E-03
      0.230000          0.372800E-03
      0.235000          0.357058E-03
      0.240000          0.343102E-03
      0.245000          0.330536E-03
      0.250000          0.318956E-03
      0.255000          0.307993E-03
      0.260000          0.297348E-03
      0.265000          0.286810E-03
      0.270000          0.276268E-03
      0.275000          0.265713E-03
      0.280000          0.255228E-03
      0.285000          0.244971E-03
      0.290000          0.235150E-03
      0.295000          0.226001E-03
      0.300000          0.217757E-03
      0.305000          0.210628E-03
      0.310000          0.204778E-03
      0.315000          0.200308E-03
      0.320000          0.197248E-03
      0.325000          0.195550E-03
      0.330000          0.195095E-03
      0.335000          0.195697E-03
      0.340000          0.197116E-03
      0.345000          0.199076E-03
      0.350000          0.201281E-03
      0.355000          0.203432E-03
      0.360000          0.205249E-03
      0.365000          0.206482E-03
      0.370000          0.206924E-03
      0.375000          0.206425E-03
      0.380000          0.204892E-03
      0.385000          0.202293E-03
      0.390000          0.198653E-03
      0.395000          0.194051E-03
      0.400000          0.188610E-03
      0.405000          0.182485E-03
      0.410000          0.175855E-03
      0.415000          0.168909E-03
      0.420000          0.161837E-03
      0.425000          0.154813E-03
      0.430000          0.147997E-03
      0.435000          0.141518E-03
      0.440000          0.135475E-03
      0.445000          0.129934E-03
      0.450000          0.124929E-03
      0.455000          0.120460E-03
      0.460000          0.116501E-03
      0.465000          0.113005E-03
      0.470000          0.109908E-03
      0.475000          0.107135E-03
      0.480000          0.104609E-03
      0.485000          0.102254E-03
      0.490000          0.100004E-03
      0.495000          0.978045E-04
      0.500000          0.956141E-04
