 I_abs(s)[cm^-1]/c[mg/ml]
       0.00000          0.142526E-01
      0.500000E-02      0.141878E-01
      0.100000E-01      0.139950E-01
      0.150000E-01      0.136793E-01
      0.200000E-01      0.132490E-01
      0.250000E-01      0.127152E-01
      0.300000E-01      0.120914E-01
      0.350000E-01      0.113929E-01
      0.400000E-01      0.106364E-01
      0.450000E-01      0.983923E-02
      0.500000E-01      0.901872E-02
      0.550000E-01      0.819170E-02
      0.600000E-01      0.737393E-02
      0.650000E-01      0.657962E-02
      0.700000E-01      0.582109E-02
      0.750000E-01      0.510850E-02
      0.800000E-01      0.444971E-02
      0.850000E-01      0.385020E-02
      0.900000E-01      0.331316E-02
      0.950000E-01      0.283962E-02
      0.100000          0.242868E-02
      0.105000          0.207779E-02
      0.110000          0.178303E-02
      0.115000          0.153949E-02
      0.120000          0.134158E-02
      0.125000          0.118336E-02
      0.130000          0.105880E-02
      0.135000          0.962073E-03
      0.140000          0.887702E-03
      0.145000          0.830749E-03
      0.150000          0.786895E-03
      0.155000          0.752499E-03
      0.160000          0.724602E-03
      0.165000          0.700898E-03
      0.170000          0.679682E-03
      0.175000          0.659770E-03
      0.180000          0.640414E-03
      0.185000          0.621207E-03
      0.190000          0.601995E-03
      0.195000          0.582794E-03
      0.200000          0.563716E-03
      0.205000          0.544912E-03
      0.210000          0.526528E-03
      0.215000          0.508672E-03
      0.220000          0.491403E-03
      0.225000          0.474720E-03
      0.230000          0.458570E-03
      0.235000          0.442854E-03
      0.240000          0.427450E-03
      0.245000          0.412222E-03
      0.250000          0.397041E-03
      0.255000          0.381801E-03
      0.260000          0.366429E-03
      0.265000          0.350896E-03
      0.270000          0.335218E-03
      0.275000          0.319460E-03
      0.280000          0.303730E-03
      0.285000          0.288171E-03
      0.290000          0.272954E-03
      0.295000          0.258264E-03
      0.300000          0.244290E-03
      0.305000          0.231211E-03
      0.310000          0.219186E-03
      0.315000          0.208342E-03
      0.320000          0.198769E-03
      0.325000          0.190514E-03
      0.330000          0.183578E-03
      0.335000          0.177918E-03
      0.340000          0.173446E-03
      0.345000          0.170041E-03
      0.350000          0.167548E-03
      0.355000          0.165794E-03
      0.360000          0.164591E-03
      0.365000          0.163750E-03
      0.370000          0.163085E-03
      0.375000          0.162428E-03
      0.380000          0.161629E-03
      0.385000          0.160564E-03
      0.390000          0.159139E-03
      0.395000          0.157291E-03
      0.400000          0.154988E-03
      0.405000          0.152226E-03
      0.410000          0.149028E-03
      0.415000          0.145439E-03
      0.420000          0.141521E-03
      0.425000          0.137348E-03
      0.430000          0.133000E-03
      0.435000          0.128561E-03
      0.440000          0.124111E-03
      0.445000          0.119724E-03
      0.450000          0.115466E-03
      0.455000          0.111393E-03
      0.460000          0.107546E-03
      0.465000          0.103956E-03
      0.470000          0.100640E-03
      0.475000          0.976031E-04
      0.480000          0.948420E-04
      0.485000          0.923427E-04
      0.490000          0.900848E-04
      0.495000          0.880425E-04
      0.500000          0.861867E-04
