 I_abs(s)[cm^-1]/c[mg/ml]
       0.00000          0.144180E-01
      0.500000E-02      0.143401E-01
      0.100000E-01      0.141088E-01
      0.150000E-01      0.137319E-01
      0.200000E-01      0.132213E-01
      0.250000E-01      0.125932E-01
      0.300000E-01      0.118669E-01
      0.350000E-01      0.110637E-01
      0.400000E-01      0.102065E-01
      0.450000E-01      0.931806E-02
      0.500000E-01      0.842039E-02
      0.550000E-01      0.753393E-02
      0.600000E-01      0.667674E-02
      0.650000E-01      0.586400E-02
      0.700000E-01      0.510769E-02
      0.750000E-01      0.441648E-02
      0.800000E-01      0.379574E-02
      0.850000E-01      0.324783E-02
      0.900000E-01      0.277235E-02
      0.950000E-01      0.236663E-02
      0.100000          0.202621E-02
      0.105000          0.174527E-02
      0.110000          0.151718E-02
      0.115000          0.133487E-02
      0.120000          0.119123E-02
      0.125000          0.107940E-02
      0.130000          0.993006E-03
      0.135000          0.926312E-03
      0.140000          0.874303E-03
      0.145000          0.832734E-03
      0.150000          0.798124E-03
      0.155000          0.767722E-03
      0.160000          0.739449E-03
      0.165000          0.711823E-03
      0.170000          0.683889E-03
      0.175000          0.655128E-03
      0.180000          0.625382E-03
      0.185000          0.594774E-03
      0.190000          0.563630E-03
      0.195000          0.532410E-03
      0.200000          0.501642E-03
      0.205000          0.471867E-03
      0.210000          0.443587E-03
      0.215000          0.417228E-03
      0.220000          0.393113E-03
      0.225000          0.371441E-03
      0.230000          0.352288E-03
      0.235000          0.335608E-03
      0.240000          0.321249E-03
      0.245000          0.308974E-03
      0.250000          0.298489E-03
      0.255000          0.289466E-03
      0.260000          0.281571E-03
      0.265000          0.274490E-03
      0.270000          0.267942E-03
      0.275000          0.261694E-03
      0.280000          0.255568E-03
      0.285000          0.249444E-03
      0.290000          0.243250E-03
      0.295000          0.236962E-03
      0.300000          0.230593E-03
      0.305000          0.224181E-03
      0.310000          0.217783E-03
      0.315000          0.211466E-03
      0.320000          0.205301E-03
      0.325000          0.199355E-03
      0.330000          0.193691E-03
      0.335000          0.188363E-03
      0.340000          0.183416E-03
      0.345000          0.178881E-03
      0.350000          0.174777E-03
      0.355000          0.171107E-03
      0.360000          0.167859E-03
      0.365000          0.165004E-03
      0.370000          0.162499E-03
      0.375000          0.160288E-03
      0.380000          0.158302E-03
      0.385000          0.156468E-03
      0.390000          0.154712E-03
      0.395000          0.152963E-03
      0.400000          0.151162E-03
      0.405000          0.149265E-03
      0.410000          0.147246E-03
      0.415000          0.145102E-03
      0.420000          0.142847E-03
      0.425000          0.140515E-03
      0.430000          0.138154E-03
      0.435000          0.135817E-03
      0.440000          0.133561E-03
      0.445000          0.131433E-03
      0.450000          0.129471E-03
      0.455000          0.127694E-03
      0.460000          0.126104E-03
      0.465000          0.124680E-03
      0.470000          0.123384E-03
      0.475000          0.122165E-03
      0.480000          0.120963E-03
      0.485000          0.119714E-03
      0.490000          0.118362E-03
      0.495000          0.116858E-03
      0.500000          0.115172E-03
