 I_abs(s)[cm^-1]/c[mg/ml]
       0.00000          0.144971E-01
      0.500000E-02      0.144218E-01
      0.100000E-01      0.141987E-01
      0.150000E-01      0.138354E-01
      0.200000E-01      0.133445E-01
      0.250000E-01      0.127422E-01
      0.300000E-01      0.120478E-01
      0.350000E-01      0.112825E-01
      0.400000E-01      0.104681E-01
      0.450000E-01      0.962630E-02
      0.500000E-01      0.877727E-02
      0.550000E-01      0.793917E-02
      0.600000E-01      0.712745E-02
      0.650000E-01      0.635456E-02
      0.700000E-01      0.562980E-02
      0.750000E-01      0.495943E-02
      0.800000E-01      0.434697E-02
      0.850000E-01      0.379357E-02
      0.900000E-01      0.329846E-02
      0.950000E-01      0.285945E-02
      0.100000          0.247336E-02
      0.105000          0.213644E-02
      0.110000          0.184465E-02
      0.115000          0.159392E-02
      0.120000          0.138028E-02
      0.125000          0.119991E-02
      0.130000          0.104920E-02
      0.135000          0.924740E-03
      0.140000          0.823267E-03
      0.145000          0.741668E-03
      0.150000          0.676967E-03
      0.155000          0.626332E-03
      0.160000          0.587105E-03
      0.165000          0.556838E-03
      0.170000          0.533332E-03
      0.175000          0.514675E-03
      0.180000          0.499272E-03
      0.185000          0.485849E-03
      0.190000          0.473449E-03
      0.195000          0.461405E-03
      0.200000          0.449300E-03
      0.205000          0.436917E-03
      0.210000          0.424188E-03
      0.215000          0.411144E-03
      0.220000          0.397871E-03
      0.225000          0.384483E-03
      0.230000          0.371096E-03
      0.235000          0.357821E-03
      0.240000          0.344759E-03
      0.245000          0.332007E-03
      0.250000          0.319661E-03
      0.255000          0.307816E-03
      0.260000          0.296573E-03
      0.265000          0.286027E-03
      0.270000          0.276264E-03
      0.275000          0.267348E-03
      0.280000          0.259313E-03
      0.285000          0.252155E-03
      0.290000          0.245822E-03
      0.295000          0.240221E-03
      0.300000          0.235221E-03
      0.305000          0.230665E-03
      0.310000          0.226383E-03
      0.315000          0.222209E-03
      0.320000          0.217997E-03
      0.325000          0.213634E-03
      0.330000          0.209048E-03
      0.335000          0.204211E-03
      0.340000          0.199138E-03
      0.345000          0.193881E-03
      0.350000          0.188512E-03
      0.355000          0.183119E-03
      0.360000          0.177788E-03
      0.365000          0.172594E-03
      0.370000          0.167590E-03
      0.375000          0.162809E-03
      0.380000          0.158257E-03
      0.385000          0.153922E-03
      0.390000          0.149778E-03
      0.395000          0.145792E-03
      0.400000          0.141935E-03
      0.405000          0.138184E-03
      0.410000          0.134533E-03
      0.415000          0.130989E-03
      0.420000          0.127576E-03
      0.425000          0.124327E-03
      0.430000          0.121282E-03
      0.435000          0.118481E-03
      0.440000          0.115957E-03
      0.445000          0.113729E-03
      0.450000          0.111800E-03
      0.455000          0.110154E-03
      0.460000          0.108755E-03
      0.465000          0.107554E-03
      0.470000          0.106487E-03
      0.475000          0.105486E-03
      0.480000          0.104480E-03
      0.485000          0.103406E-03
      0.490000          0.102208E-03
      0.495000          0.100846E-03
      0.500000          0.992929E-04
