 I_abs(s)[cm^-1]/c[mg/ml]
       0.00000          0.131069E-01
      0.500000E-02      0.129683E-01
      0.100000E-01      0.125622E-01
      0.150000E-01      0.119164E-01
      0.200000E-01      0.110739E-01
      0.250000E-01      0.100885E-01
      0.300000E-01      0.901968E-02
      0.350000E-01      0.792686E-02
      0.400000E-01      0.686405E-02
      0.450000E-01      0.587580E-02
      0.500000E-01      0.499431E-02
      0.550000E-01      0.423824E-02
      0.600000E-01      0.361318E-02
      0.650000E-01      0.311339E-02
      0.700000E-01      0.272460E-02
      0.750000E-01      0.242728E-02
      0.800000E-01      0.219993E-02
      0.850000E-01      0.202196E-02
      0.900000E-01      0.187583E-02
      0.950000E-01      0.174827E-02
      0.100000          0.163069E-02
      0.105000          0.151873E-02
      0.110000          0.141133E-02
      0.115000          0.130951E-02
      0.120000          0.121515E-02
      0.125000          0.112996E-02
      0.130000          0.105484E-02
      0.135000          0.989566E-03
      0.140000          0.932913E-03
      0.145000          0.882952E-03
      0.150000          0.837538E-03
      0.155000          0.794773E-03
      0.160000          0.753348E-03
      0.165000          0.712717E-03
      0.170000          0.673071E-03
      0.175000          0.635146E-03
      0.180000          0.599926E-03
      0.185000          0.568327E-03
      0.190000          0.540921E-03
      0.195000          0.517770E-03
      0.200000          0.498392E-03
      0.205000          0.481854E-03
      0.210000          0.466964E-03
      0.215000          0.452503E-03
      0.220000          0.437461E-03
      0.225000          0.421208E-03
      0.230000          0.403583E-03
      0.235000          0.384876E-03
      0.240000          0.365735E-03
      0.245000          0.346992E-03
      0.250000          0.329483E-03
      0.255000          0.313873E-03
      0.260000          0.300534E-03
      0.265000          0.289488E-03
      0.270000          0.280430E-03
      0.275000          0.272806E-03
      0.280000          0.265942E-03
      0.285000          0.259183E-03
      0.290000          0.252014E-03
      0.295000          0.244150E-03
      0.300000          0.235573E-03
      0.305000          0.226512E-03
      0.310000          0.217384E-03
      0.315000          0.208700E-03
      0.320000          0.200958E-03
      0.325000          0.194554E-03
      0.330000          0.189711E-03
      0.335000          0.186446E-03
      0.340000          0.184579E-03
      0.345000          0.183769E-03
      0.350000          0.183580E-03
      0.355000          0.183551E-03
      0.360000          0.183268E-03
      0.365000          0.182418E-03
      0.370000          0.180824E-03
      0.375000          0.178448E-03
      0.380000          0.175381E-03
      0.385000          0.171804E-03
      0.390000          0.167953E-03
      0.395000          0.164067E-03
      0.400000          0.160359E-03
      0.405000          0.156983E-03
      0.410000          0.154025E-03
      0.415000          0.151504E-03
      0.420000          0.149381E-03
      0.425000          0.147582E-03
      0.430000          0.146012E-03
      0.435000          0.144576E-03
      0.440000          0.143189E-03
      0.445000          0.141783E-03
      0.450000          0.140308E-03
      0.455000          0.138724E-03
      0.460000          0.137002E-03
      0.465000          0.135111E-03
      0.470000          0.133023E-03
      0.475000          0.130709E-03
      0.480000          0.128145E-03
      0.485000          0.125322E-03
      0.490000          0.122248E-03
      0.495000          0.118958E-03
      0.500000          0.115513E-03
