 I_abs(s)[cm^-1]/c[mg/ml]
       0.00000          0.144417E-01
      0.500000E-02      0.143741E-01
      0.100000E-01      0.141731E-01
      0.150000E-01      0.138447E-01
      0.200000E-01      0.133980E-01
      0.250000E-01      0.128456E-01
      0.300000E-01      0.122026E-01
      0.350000E-01      0.114858E-01
      0.400000E-01      0.107136E-01
      0.450000E-01      0.990462E-02
      0.500000E-01      0.907732E-02
      0.550000E-01      0.824926E-02
      0.600000E-01      0.743647E-02
      0.650000E-01      0.665300E-02
      0.700000E-01      0.591055E-02
      0.750000E-01      0.521829E-02
      0.800000E-01      0.458272E-02
      0.850000E-01      0.400779E-02
      0.900000E-01      0.349502E-02
      0.950000E-01      0.304379E-02
      0.100000          0.265166E-02
      0.105000          0.231476E-02
      0.110000          0.202816E-02
      0.115000          0.178630E-02
      0.120000          0.158332E-02
      0.125000          0.141340E-02
      0.130000          0.127100E-02
      0.135000          0.115108E-02
      0.140000          0.104922E-02
      0.145000          0.961690E-03
      0.150000          0.885457E-03
      0.155000          0.818172E-03
      0.160000          0.758082E-03
      0.165000          0.703947E-03
      0.170000          0.654933E-03
      0.175000          0.610507E-03
      0.180000          0.570335E-03
      0.185000          0.534199E-03
      0.190000          0.501924E-03
      0.195000          0.473332E-03
      0.200000          0.448204E-03
      0.205000          0.426273E-03
      0.210000          0.407219E-03
      0.215000          0.390681E-03
      0.220000          0.376276E-03
      0.225000          0.363616E-03
      0.230000          0.352333E-03
      0.235000          0.342092E-03
      0.240000          0.332610E-03
      0.245000          0.323660E-03
      0.250000          0.315076E-03
      0.255000          0.306750E-03
      0.260000          0.298629E-03
      0.265000          0.290700E-03
      0.270000          0.282984E-03
      0.275000          0.275525E-03
      0.280000          0.268372E-03
      0.285000          0.261579E-03
      0.290000          0.255187E-03
      0.295000          0.249227E-03
      0.300000          0.243709E-03
      0.305000          0.238622E-03
      0.310000          0.233938E-03
      0.315000          0.229606E-03
      0.320000          0.225562E-03
      0.325000          0.221729E-03
      0.330000          0.218019E-03
      0.335000          0.214344E-03
      0.340000          0.210614E-03
      0.345000          0.206747E-03
      0.350000          0.202671E-03
      0.355000          0.198328E-03
      0.360000          0.193680E-03
      0.365000          0.188707E-03
      0.370000          0.183417E-03
      0.375000          0.177837E-03
      0.380000          0.172021E-03
      0.385000          0.166042E-03
      0.390000          0.159992E-03
      0.395000          0.153977E-03
      0.400000          0.148113E-03
      0.405000          0.142515E-03
      0.410000          0.137296E-03
      0.415000          0.132557E-03
      0.420000          0.128382E-03
      0.425000          0.124833E-03
      0.430000          0.121944E-03
      0.435000          0.119722E-03
      0.440000          0.118140E-03
      0.445000          0.117147E-03
      0.450000          0.116662E-03
      0.455000          0.116584E-03
      0.460000          0.116795E-03
      0.465000          0.117170E-03
      0.470000          0.117580E-03
      0.475000          0.117903E-03
      0.480000          0.118027E-03
      0.485000          0.117862E-03
      0.490000          0.117337E-03
      0.495000          0.116409E-03
      0.500000          0.115062E-03
