 I_abs(s)[cm^-1]/c[mg/ml]
       0.00000          0.146638E-01
      0.500000E-02      0.146007E-01
      0.100000E-01      0.144128E-01
      0.150000E-01      0.141045E-01
      0.200000E-01      0.136830E-01
      0.250000E-01      0.131581E-01
      0.300000E-01      0.125416E-01
      0.350000E-01      0.118473E-01
      0.400000E-01      0.110900E-01
      0.450000E-01      0.102857E-01
      0.500000E-01      0.945031E-02
      0.550000E-01      0.859987E-02
      0.600000E-01      0.774963E-02
      0.650000E-01      0.691383E-02
      0.700000E-01      0.610527E-02
      0.750000E-01      0.533507E-02
      0.800000E-01      0.461246E-02
      0.850000E-01      0.394465E-02
      0.900000E-01      0.333679E-02
      0.950000E-01      0.279204E-02
      0.100000          0.231162E-02
      0.105000          0.189505E-02
      0.110000          0.154030E-02
      0.115000          0.124408E-02
      0.120000          0.100206E-02
      0.125000          0.809179E-03
      0.130000          0.659900E-03
      0.135000          0.548443E-03
      0.140000          0.469018E-03
      0.145000          0.416015E-03
      0.150000          0.384157E-03
      0.155000          0.368622E-03
      0.160000          0.365117E-03
      0.165000          0.369931E-03
      0.170000          0.379949E-03
      0.175000          0.392636E-03
      0.180000          0.406009E-03
      0.185000          0.418584E-03
      0.190000          0.429317E-03
      0.195000          0.437540E-03
      0.200000          0.442890E-03
      0.205000          0.445249E-03
      0.210000          0.444679E-03
      0.215000          0.441373E-03
      0.220000          0.435607E-03
      0.225000          0.427707E-03
      0.230000          0.418015E-03
      0.235000          0.406875E-03
      0.240000          0.394615E-03
      0.245000          0.381535E-03
      0.250000          0.367911E-03
      0.255000          0.353983E-03
      0.260000          0.339964E-03
      0.265000          0.326035E-03
      0.270000          0.312353E-03
      0.275000          0.299047E-03
      0.280000          0.286224E-03
      0.285000          0.273967E-03
      0.290000          0.262342E-03
      0.295000          0.251394E-03
      0.300000          0.241148E-03
      0.305000          0.231616E-03
      0.310000          0.222791E-03
      0.315000          0.214654E-03
      0.320000          0.207175E-03
      0.325000          0.200314E-03
      0.330000          0.194026E-03
      0.335000          0.188262E-03
      0.340000          0.182973E-03
      0.345000          0.178110E-03
      0.350000          0.173629E-03
      0.355000          0.169492E-03
      0.360000          0.165667E-03
      0.365000          0.162128E-03
      0.370000          0.158857E-03
      0.375000          0.155842E-03
      0.380000          0.153075E-03
      0.385000          0.150551E-03
      0.390000          0.148267E-03
      0.395000          0.146218E-03
      0.400000          0.144399E-03
      0.405000          0.142797E-03
      0.410000          0.141398E-03
      0.415000          0.140179E-03
      0.420000          0.139113E-03
      0.425000          0.138164E-03
      0.430000          0.137293E-03
      0.435000          0.136457E-03
      0.440000          0.135610E-03
      0.445000          0.134703E-03
      0.450000          0.133690E-03
      0.455000          0.132530E-03
      0.460000          0.131185E-03
      0.465000          0.129622E-03
      0.470000          0.127820E-03
      0.475000          0.125764E-03
      0.480000          0.123451E-03
      0.485000          0.120887E-03
      0.490000          0.118087E-03
      0.495000          0.115075E-03
      0.500000          0.111886E-03
