 I_abs(s)[cm^-1]/c[mg/ml]
       0.00000          0.149037E-01
      0.500000E-02      0.148275E-01
      0.100000E-01      0.146016E-01
      0.150000E-01      0.142333E-01
      0.200000E-01      0.137346E-01
      0.250000E-01      0.131215E-01
      0.300000E-01      0.124125E-01
      0.350000E-01      0.116285E-01
      0.400000E-01      0.107910E-01
      0.450000E-01      0.992168E-02
      0.500000E-01      0.904088E-02
      0.550000E-01      0.816725E-02
      0.600000E-01      0.731698E-02
      0.650000E-01      0.650343E-02
      0.700000E-01      0.573694E-02
      0.750000E-01      0.502490E-02
      0.800000E-01      0.437192E-02
      0.850000E-01      0.378014E-02
      0.900000E-01      0.324966E-02
      0.950000E-01      0.277897E-02
      0.100000          0.236540E-02
      0.105000          0.200547E-02
      0.110000          0.169527E-02
      0.115000          0.143071E-02
      0.120000          0.120766E-02
      0.125000          0.102206E-02
      0.130000          0.870014E-03
      0.135000          0.747744E-03
      0.140000          0.651608E-03
      0.145000          0.578077E-03
      0.150000          0.523734E-03
      0.155000          0.485286E-03
      0.160000          0.459595E-03
      0.165000          0.443727E-03
      0.170000          0.435010E-03
      0.175000          0.431095E-03
      0.180000          0.430000E-03
      0.185000          0.430144E-03
      0.190000          0.430354E-03
      0.195000          0.429847E-03
      0.200000          0.428188E-03
      0.205000          0.425223E-03
      0.210000          0.421004E-03
      0.215000          0.415710E-03
      0.220000          0.409562E-03
      0.225000          0.402765E-03
      0.230000          0.395457E-03
      0.235000          0.387680E-03
      0.240000          0.379382E-03
      0.245000          0.370427E-03
      0.250000          0.360627E-03
      0.255000          0.349782E-03
      0.260000          0.337725E-03
      0.265000          0.324356E-03
      0.270000          0.309674E-03
      0.275000          0.293793E-03
      0.280000          0.276943E-03
      0.285000          0.259459E-03
      0.290000          0.241752E-03
      0.295000          0.224278E-03
      0.300000          0.207499E-03
      0.305000          0.191845E-03
      0.310000          0.177677E-03
      0.315000          0.165268E-03
      0.320000          0.154779E-03
      0.325000          0.146263E-03
      0.330000          0.139664E-03
      0.335000          0.134836E-03
      0.340000          0.131564E-03
      0.345000          0.129590E-03
      0.350000          0.128637E-03
      0.355000          0.128435E-03
      0.360000          0.128739E-03
      0.365000          0.129346E-03
      0.370000          0.130098E-03
      0.375000          0.130886E-03
      0.380000          0.131646E-03
      0.385000          0.132348E-03
      0.390000          0.132990E-03
      0.395000          0.133581E-03
      0.400000          0.134134E-03
      0.405000          0.134657E-03
      0.410000          0.135146E-03
      0.415000          0.135583E-03
      0.420000          0.135938E-03
      0.425000          0.136169E-03
      0.430000          0.136229E-03
      0.435000          0.136073E-03
      0.440000          0.135660E-03
      0.445000          0.134966E-03
      0.450000          0.133979E-03
      0.455000          0.132708E-03
      0.460000          0.131178E-03
      0.465000          0.129431E-03
      0.470000          0.127522E-03
      0.475000          0.125513E-03
      0.480000          0.123467E-03
      0.485000          0.121443E-03
      0.490000          0.119491E-03
      0.495000          0.117649E-03
      0.500000          0.115937E-03
