 I_abs(s)[cm^-1]/c[mg/ml]
       0.00000          0.146240E-01
      0.500000E-02      0.145609E-01
      0.100000E-01      0.143729E-01
      0.150000E-01      0.140647E-01
      0.200000E-01      0.136436E-01
      0.250000E-01      0.131195E-01
      0.300000E-01      0.125046E-01
      0.350000E-01      0.118128E-01
      0.400000E-01      0.110594E-01
      0.450000E-01      0.102603E-01
      0.500000E-01      0.943180E-02
      0.550000E-01      0.858998E-02
      0.600000E-01      0.775012E-02
      0.650000E-01      0.692640E-02
      0.700000E-01      0.613144E-02
      0.750000E-01      0.537613E-02
      0.800000E-01      0.466935E-02
      0.850000E-01      0.401789E-02
      0.900000E-01      0.342646E-02
      0.950000E-01      0.289771E-02
      0.100000          0.243237E-02
      0.105000          0.202946E-02
      0.110000          0.168653E-02
      0.115000          0.139989E-02
      0.120000          0.116493E-02
      0.125000          0.976401E-03
      0.130000          0.828666E-03
      0.135000          0.715979E-03
      0.140000          0.632686E-03
      0.145000          0.573416E-03
      0.150000          0.533222E-03
      0.155000          0.507675E-03
      0.160000          0.492929E-03
      0.165000          0.485745E-03
      0.170000          0.483474E-03
      0.175000          0.484029E-03
      0.180000          0.485827E-03
      0.185000          0.487725E-03
      0.190000          0.488940E-03
      0.195000          0.488982E-03
      0.200000          0.487578E-03
      0.205000          0.484612E-03
      0.210000          0.480070E-03
      0.215000          0.474000E-03
      0.220000          0.466480E-03
      0.225000          0.457598E-03
      0.230000          0.447445E-03
      0.235000          0.436104E-03
      0.240000          0.423663E-03
      0.245000          0.410211E-03
      0.250000          0.395850E-03
      0.255000          0.380701E-03
      0.260000          0.364906E-03
      0.265000          0.348634E-03
      0.270000          0.332074E-03
      0.275000          0.315437E-03
      0.280000          0.298948E-03
      0.285000          0.282831E-03
      0.290000          0.267307E-03
      0.295000          0.252580E-03
      0.300000          0.238826E-03
      0.305000          0.226186E-03
      0.310000          0.214762E-03
      0.315000          0.204607E-03
      0.320000          0.195729E-03
      0.325000          0.188093E-03
      0.330000          0.181621E-03
      0.335000          0.176200E-03
      0.340000          0.171691E-03
      0.345000          0.167938E-03
      0.350000          0.164776E-03
      0.355000          0.162039E-03
      0.360000          0.159571E-03
      0.365000          0.157234E-03
      0.370000          0.154909E-03
      0.375000          0.152505E-03
      0.380000          0.149957E-03
      0.385000          0.147227E-03
      0.390000          0.144308E-03
      0.395000          0.141212E-03
      0.400000          0.137973E-03
      0.405000          0.134639E-03
      0.410000          0.131269E-03
      0.415000          0.127928E-03
      0.420000          0.124677E-03
      0.425000          0.121576E-03
      0.430000          0.118677E-03
      0.435000          0.116020E-03
      0.440000          0.113634E-03
      0.445000          0.111534E-03
      0.450000          0.109722E-03
      0.455000          0.108190E-03
      0.460000          0.106920E-03
      0.465000          0.105884E-03
      0.470000          0.105051E-03
      0.475000          0.104387E-03
      0.480000          0.103856E-03
      0.485000          0.103426E-03
      0.490000          0.103068E-03
      0.495000          0.102757E-03
      0.500000          0.102476E-03
