 I_abs(s)[cm^-1]/c[mg/ml]
       0.00000          0.146559E-01
      0.500000E-02      0.145860E-01
      0.100000E-01      0.143783E-01
      0.150000E-01      0.140385E-01
      0.200000E-01      0.135755E-01
      0.250000E-01      0.130018E-01
      0.300000E-01      0.123322E-01
      0.350000E-01      0.115836E-01
      0.400000E-01      0.107745E-01
      0.450000E-01      0.992390E-02
      0.500000E-01      0.905092E-02
      0.550000E-01      0.817406E-02
      0.600000E-01      0.731057E-02
      0.650000E-01      0.647595E-02
      0.700000E-01      0.568355E-02
      0.750000E-01      0.494426E-02
      0.800000E-01      0.426631E-02
      0.850000E-01      0.365529E-02
      0.900000E-01      0.311415E-02
      0.950000E-01      0.264339E-02
      0.100000          0.224132E-02
      0.105000          0.190441E-02
      0.110000          0.162763E-02
      0.115000          0.140483E-02
      0.120000          0.122921E-02
      0.125000          0.109362E-02
      0.130000          0.990936E-03
      0.135000          0.914352E-03
      0.140000          0.857618E-03
      0.145000          0.815210E-03
      0.150000          0.782439E-03
      0.155000          0.755506E-03
      0.160000          0.731492E-03
      0.165000          0.708314E-03
      0.170000          0.684635E-03
      0.175000          0.659753E-03
      0.180000          0.633476E-03
      0.185000          0.605993E-03
      0.190000          0.577747E-03
      0.195000          0.549322E-03
      0.200000          0.521341E-03
      0.205000          0.494393E-03
      0.210000          0.468973E-03
      0.215000          0.445449E-03
      0.220000          0.424043E-03
      0.225000          0.404830E-03
      0.230000          0.387755E-03
      0.235000          0.372650E-03
      0.240000          0.359268E-03
      0.245000          0.347305E-03
      0.250000          0.336438E-03
      0.255000          0.326345E-03
      0.260000          0.316730E-03
      0.265000          0.307337E-03
      0.270000          0.297965E-03
      0.275000          0.288470E-03
      0.280000          0.278763E-03
      0.285000          0.268814E-03
      0.290000          0.258639E-03
      0.295000          0.248295E-03
      0.300000          0.237871E-03
      0.305000          0.227478E-03
      0.310000          0.217238E-03
      0.315000          0.207280E-03
      0.320000          0.197732E-03
      0.325000          0.188711E-03
      0.330000          0.180323E-03
      0.335000          0.172659E-03
      0.340000          0.165788E-03
      0.345000          0.159758E-03
      0.350000          0.154595E-03
      0.355000          0.150299E-03
      0.360000          0.146850E-03
      0.365000          0.144201E-03
      0.370000          0.142287E-03
      0.375000          0.141021E-03
      0.380000          0.140302E-03
      0.385000          0.140016E-03
      0.390000          0.140041E-03
      0.395000          0.140255E-03
      0.400000          0.140536E-03
      0.405000          0.140771E-03
      0.410000          0.140859E-03
      0.415000          0.140716E-03
      0.420000          0.140278E-03
      0.425000          0.139505E-03
      0.430000          0.138376E-03
      0.435000          0.136896E-03
      0.440000          0.135089E-03
      0.445000          0.132998E-03
      0.450000          0.130679E-03
      0.455000          0.128200E-03
      0.460000          0.125632E-03
      0.465000          0.123045E-03
      0.470000          0.120506E-03
      0.475000          0.118073E-03
      0.480000          0.115793E-03
      0.485000          0.113697E-03
      0.490000          0.111804E-03
      0.495000          0.110114E-03
      0.500000          0.108616E-03
