 I_abs(s)[cm^-1]/c[mg/ml]
       0.00000          0.143943E-01
      0.500000E-02      0.143030E-01
      0.100000E-01      0.140328E-01
      0.150000E-01      0.135952E-01
      0.200000E-01      0.130080E-01
      0.250000E-01      0.122948E-01
      0.300000E-01      0.114830E-01
      0.350000E-01      0.106018E-01
      0.400000E-01      0.968104E-02
      0.450000E-01      0.874908E-02
      0.500000E-01      0.783140E-02
      0.550000E-01      0.694957E-02
      0.600000E-01      0.612046E-02
      0.650000E-01      0.535600E-02
      0.700000E-01      0.466326E-02
      0.750000E-01      0.404491E-02
      0.800000E-01      0.349989E-02
      0.850000E-01      0.302432E-02
      0.900000E-01      0.261235E-02
      0.950000E-01      0.225712E-02
      0.100000          0.195146E-02
      0.105000          0.168856E-02
      0.110000          0.146234E-02
      0.115000          0.126770E-02
      0.120000          0.110055E-02
      0.125000          0.957782E-03
      0.130000          0.837001E-03
      0.135000          0.736368E-03
      0.140000          0.654330E-03
      0.145000          0.589421E-03
      0.150000          0.540100E-03
      0.155000          0.504665E-03
      0.160000          0.481214E-03
      0.165000          0.467676E-03
      0.170000          0.461874E-03
      0.175000          0.461623E-03
      0.180000          0.464826E-03
      0.185000          0.469573E-03
      0.190000          0.474217E-03
      0.195000          0.477432E-03
      0.200000          0.478243E-03
      0.205000          0.476029E-03
      0.210000          0.470509E-03
      0.215000          0.461704E-03
      0.220000          0.449897E-03
      0.225000          0.435570E-03
      0.230000          0.419352E-03
      0.235000          0.401953E-03
      0.240000          0.384113E-03
      0.245000          0.366540E-03
      0.250000          0.349869E-03
      0.255000          0.334617E-03
      0.260000          0.321158E-03
      0.265000          0.309702E-03
      0.270000          0.300293E-03
      0.275000          0.292818E-03
      0.280000          0.287025E-03
      0.285000          0.282559E-03
      0.290000          0.278999E-03
      0.295000          0.275902E-03
      0.300000          0.272843E-03
      0.305000          0.269456E-03
      0.310000          0.265460E-03
      0.315000          0.260676E-03
      0.320000          0.255037E-03
      0.325000          0.248578E-03
      0.330000          0.241422E-03
      0.335000          0.233756E-03
      0.340000          0.225803E-03
      0.345000          0.217795E-03
      0.350000          0.209944E-03
      0.355000          0.202428E-03
      0.360000          0.195374E-03
      0.365000          0.188854E-03
      0.370000          0.182886E-03
      0.375000          0.177442E-03
      0.380000          0.172459E-03
      0.385000          0.167854E-03
      0.390000          0.163532E-03
      0.395000          0.159403E-03
      0.400000          0.155385E-03
      0.405000          0.151414E-03
      0.410000          0.147442E-03
      0.415000          0.143442E-03
      0.420000          0.139400E-03
      0.425000          0.135321E-03
      0.430000          0.131217E-03
      0.435000          0.127115E-03
      0.440000          0.123046E-03
      0.445000          0.119051E-03
      0.450000          0.115178E-03
      0.455000          0.111478E-03
      0.460000          0.108007E-03
      0.465000          0.104821E-03
      0.470000          0.101971E-03
      0.475000          0.995012E-04
      0.480000          0.974431E-04
      0.485000          0.958120E-04
      0.490000          0.946038E-04
      0.495000          0.937944E-04
      0.500000          0.933399E-04
