 I_abs(s)[cm^-1]/c[mg/ml]
       0.00000          0.145050E-01
      0.500000E-02      0.144207E-01
      0.100000E-01      0.141715E-01
      0.150000E-01      0.137675E-01
      0.200000E-01      0.132250E-01
      0.250000E-01      0.125650E-01
      0.300000E-01      0.118120E-01
      0.350000E-01      0.109924E-01
      0.400000E-01      0.101327E-01
      0.450000E-01      0.925811E-02
      0.500000E-01      0.839140E-02
      0.550000E-01      0.755178E-02
      0.600000E-01      0.675440E-02
      0.650000E-01      0.601020E-02
      0.700000E-01      0.532601E-02
      0.750000E-01      0.470499E-02
      0.800000E-01      0.414723E-02
      0.850000E-01      0.365053E-02
      0.900000E-01      0.321103E-02
      0.950000E-01      0.282398E-02
      0.100000          0.248426E-02
      0.105000          0.218680E-02
      0.110000          0.192685E-02
      0.115000          0.170012E-02
      0.120000          0.150281E-02
      0.125000          0.133159E-02
      0.130000          0.118348E-02
      0.135000          0.105582E-02
      0.140000          0.946182E-03
      0.145000          0.852364E-03
      0.150000          0.772358E-03
      0.155000          0.704384E-03
      0.160000          0.646901E-03
      0.165000          0.598626E-03
      0.170000          0.558517E-03
      0.175000          0.525749E-03
      0.180000          0.499648E-03
      0.185000          0.479619E-03
      0.190000          0.465061E-03
      0.195000          0.455293E-03
      0.200000          0.449503E-03
      0.205000          0.446725E-03
      0.210000          0.445852E-03
      0.215000          0.445691E-03
      0.220000          0.445039E-03
      0.225000          0.442778E-03
      0.230000          0.437972E-03
      0.235000          0.429951E-03
      0.240000          0.418372E-03
      0.245000          0.403239E-03
      0.250000          0.384891E-03
      0.255000          0.363956E-03
      0.260000          0.341267E-03
      0.265000          0.317774E-03
      0.270000          0.294439E-03
      0.275000          0.272146E-03
      0.280000          0.251627E-03
      0.285000          0.233409E-03
      0.290000          0.217793E-03
      0.295000          0.204859E-03
      0.300000          0.194494E-03
      0.305000          0.186432E-03
      0.310000          0.180308E-03
      0.315000          0.175709E-03
      0.320000          0.172215E-03
      0.325000          0.169444E-03
      0.330000          0.167066E-03
      0.335000          0.164821E-03
      0.340000          0.162518E-03
      0.345000          0.160033E-03
      0.350000          0.157297E-03
      0.355000          0.154287E-03
      0.360000          0.151018E-03
      0.365000          0.147533E-03
      0.370000          0.143897E-03
      0.375000          0.140191E-03
      0.380000          0.136511E-03
      0.385000          0.132952E-03
      0.390000          0.129610E-03
      0.395000          0.126564E-03
      0.400000          0.123876E-03
      0.405000          0.121577E-03
      0.410000          0.119662E-03
      0.415000          0.118094E-03
      0.420000          0.116804E-03
      0.425000          0.115702E-03
      0.430000          0.114684E-03
      0.435000          0.113656E-03
      0.440000          0.112538E-03
      0.445000          0.111282E-03
      0.450000          0.109879E-03
      0.455000          0.108358E-03
      0.460000          0.106784E-03
      0.465000          0.105247E-03
      0.470000          0.103849E-03
      0.475000          0.102688E-03
      0.480000          0.101837E-03
      0.485000          0.101339E-03
      0.490000          0.101195E-03
      0.495000          0.101361E-03
      0.500000          0.101753E-03
