 I_abs(s)[cm^-1]/c[mg/ml]
       0.00000          0.146399E-01
      0.500000E-02      0.145799E-01
      0.100000E-01      0.144013E-01
      0.150000E-01      0.141081E-01
      0.200000E-01      0.137072E-01
      0.250000E-01      0.132075E-01
      0.300000E-01      0.126201E-01
      0.350000E-01      0.119579E-01
      0.400000E-01      0.112349E-01
      0.450000E-01      0.104659E-01
      0.500000E-01      0.966617E-02
      0.550000E-01      0.885068E-02
      0.600000E-01      0.803396E-02
      0.650000E-01      0.722955E-02
      0.700000E-01      0.644969E-02
      0.750000E-01      0.570503E-02
      0.800000E-01      0.500446E-02
      0.850000E-01      0.435494E-02
      0.900000E-01      0.376148E-02
      0.950000E-01      0.322715E-02
      0.100000          0.275317E-02
      0.105000          0.233904E-02
      0.110000          0.198280E-02
      0.115000          0.168120E-02
      0.120000          0.143000E-02
      0.125000          0.122424E-02
      0.130000          0.105847E-02
      0.135000          0.927072E-03
      0.140000          0.824427E-03
      0.145000          0.745157E-03
      0.150000          0.684278E-03
      0.155000          0.637327E-03
      0.160000          0.600445E-03
      0.165000          0.570425E-03
      0.170000          0.544719E-03
      0.175000          0.521413E-03
      0.180000          0.499179E-03
      0.185000          0.477200E-03
      0.190000          0.455088E-03
      0.195000          0.432792E-03
      0.200000          0.410503E-03
      0.205000          0.388562E-03
      0.210000          0.367387E-03
      0.215000          0.347397E-03
      0.220000          0.328964E-03
      0.225000          0.312367E-03
      0.230000          0.297775E-03
      0.235000          0.285233E-03
      0.240000          0.274667E-03
      0.245000          0.265898E-03
      0.250000          0.258660E-03
      0.255000          0.252630E-03
      0.260000          0.247455E-03
      0.265000          0.242779E-03
      0.270000          0.238269E-03
      0.275000          0.233638E-03
      0.280000          0.228661E-03
      0.285000          0.223185E-03
      0.290000          0.217133E-03
      0.295000          0.210505E-03
      0.300000          0.203370E-03
      0.305000          0.195853E-03
      0.310000          0.188127E-03
      0.315000          0.180393E-03
      0.320000          0.172866E-03
      0.325000          0.165758E-03
      0.330000          0.159264E-03
      0.335000          0.153551E-03
      0.340000          0.148748E-03
      0.345000          0.144941E-03
      0.350000          0.142168E-03
      0.355000          0.140419E-03
      0.360000          0.139643E-03
      0.365000          0.139747E-03
      0.370000          0.140610E-03
      0.375000          0.142081E-03
      0.380000          0.143999E-03
      0.385000          0.146193E-03
      0.390000          0.148493E-03
      0.395000          0.150739E-03
      0.400000          0.152783E-03
      0.405000          0.154498E-03
      0.410000          0.155778E-03
      0.415000          0.156544E-03
      0.420000          0.156738E-03
      0.425000          0.156329E-03
      0.430000          0.155309E-03
      0.435000          0.153689E-03
      0.440000          0.151498E-03
      0.445000          0.148782E-03
      0.450000          0.145595E-03
      0.455000          0.142002E-03
      0.460000          0.138073E-03
      0.465000          0.133881E-03
      0.470000          0.129500E-03
      0.475000          0.125003E-03
      0.480000          0.120460E-03
      0.485000          0.115938E-03
      0.490000          0.111499E-03
      0.495000          0.107198E-03
      0.500000          0.103088E-03
