 I_abs(s)[cm^-1]/c[mg/ml]
       0.00000          0.147995E-01
      0.500000E-02      0.147314E-01
      0.100000E-01      0.145289E-01
      0.150000E-01      0.141976E-01
      0.200000E-01      0.137467E-01
      0.250000E-01      0.131881E-01
      0.300000E-01      0.125368E-01
      0.350000E-01      0.118093E-01
      0.400000E-01      0.110235E-01
      0.450000E-01      0.101981E-01
      0.500000E-01      0.935136E-02
      0.550000E-01      0.850096E-02
      0.600000E-01      0.766319E-02
      0.650000E-01      0.685251E-02
      0.700000E-01      0.608120E-02
      0.750000E-01      0.535908E-02
      0.800000E-01      0.469343E-02
      0.850000E-01      0.408899E-02
      0.900000E-01      0.354808E-02
      0.950000E-01      0.307084E-02
      0.100000          0.265549E-02
      0.105000          0.229867E-02
      0.110000          0.199586E-02
      0.115000          0.174171E-02
      0.120000          0.153042E-02
      0.125000          0.135603E-02
      0.130000          0.121276E-02
      0.135000          0.109517E-02
      0.140000          0.998353E-03
      0.145000          0.918044E-03
      0.150000          0.850641E-03
      0.155000          0.793225E-03
      0.160000          0.743511E-03
      0.165000          0.699782E-03
      0.170000          0.660796E-03
      0.175000          0.625697E-03
      0.180000          0.593911E-03
      0.185000          0.565058E-03
      0.190000          0.538880E-03
      0.195000          0.515172E-03
      0.200000          0.493742E-03
      0.205000          0.474383E-03
      0.210000          0.456859E-03
      0.215000          0.440902E-03
      0.220000          0.426227E-03
      0.225000          0.412537E-03
      0.230000          0.399550E-03
      0.235000          0.387007E-03
      0.240000          0.374692E-03
      0.245000          0.362439E-03
      0.250000          0.350142E-03
      0.255000          0.337752E-03
      0.260000          0.325277E-03
      0.265000          0.312770E-03
      0.270000          0.300325E-03
      0.275000          0.288061E-03
      0.280000          0.276112E-03
      0.285000          0.264613E-03
      0.290000          0.253692E-03
      0.295000          0.243456E-03
      0.300000          0.233990E-03
      0.305000          0.225350E-03
      0.310000          0.217561E-03
      0.315000          0.210617E-03
      0.320000          0.204482E-03
      0.325000          0.199097E-03
      0.330000          0.194380E-03
      0.335000          0.190236E-03
      0.340000          0.186559E-03
      0.345000          0.183242E-03
      0.350000          0.180178E-03
      0.355000          0.177269E-03
      0.360000          0.174428E-03
      0.365000          0.171584E-03
      0.370000          0.168685E-03
      0.375000          0.165695E-03
      0.380000          0.162600E-03
      0.385000          0.159402E-03
      0.390000          0.156121E-03
      0.395000          0.152787E-03
      0.400000          0.149443E-03
      0.405000          0.146134E-03
      0.410000          0.142910E-03
      0.415000          0.139816E-03
      0.420000          0.136892E-03
      0.425000          0.134170E-03
      0.430000          0.131668E-03
      0.435000          0.129396E-03
      0.440000          0.127348E-03
      0.445000          0.125507E-03
      0.450000          0.123848E-03
      0.455000          0.122334E-03
      0.460000          0.120926E-03
      0.465000          0.119580E-03
      0.470000          0.118253E-03
      0.475000          0.116906E-03
      0.480000          0.115503E-03
      0.485000          0.114016E-03
      0.490000          0.112426E-03
      0.495000          0.110721E-03
      0.500000          0.108898E-03
