 I_abs(s)[cm^-1]/c[mg/ml]
       0.00000          0.132503E-01
      0.500000E-02      0.131144E-01
      0.100000E-01      0.127172E-01
      0.150000E-01      0.120893E-01
      0.200000E-01      0.112769E-01
      0.250000E-01      0.103365E-01
      0.300000E-01      0.932801E-02
      0.350000E-01      0.830805E-02
      0.400000E-01      0.732451E-02
      0.450000E-01      0.641280E-02
      0.500000E-01      0.559436E-02
      0.550000E-01      0.487732E-02
      0.600000E-01      0.425888E-02
      0.650000E-01      0.372884E-02
      0.700000E-01      0.327343E-02
      0.750000E-01      0.287875E-02
      0.800000E-01      0.253329E-02
      0.850000E-01      0.222919E-02
      0.900000E-01      0.196231E-02
      0.950000E-01      0.173134E-02
      0.100000          0.153636E-02
      0.105000          0.137725E-02
      0.110000          0.125251E-02
      0.115000          0.115859E-02
      0.120000          0.108994E-02
      0.125000          0.103959E-02
      0.130000          0.100013E-02
      0.135000          0.964835E-03
      0.140000          0.928519E-03
      0.145000          0.888090E-03
      0.150000          0.842630E-03
      0.155000          0.793062E-03
      0.160000          0.741521E-03
      0.165000          0.690609E-03
      0.170000          0.642715E-03
      0.175000          0.599532E-03
      0.180000          0.561855E-03
      0.185000          0.529629E-03
      0.190000          0.502205E-03
      0.195000          0.478678E-03
      0.200000          0.458204E-03
      0.205000          0.440211E-03
      0.210000          0.424470E-03
      0.215000          0.411018E-03
      0.220000          0.399992E-03
      0.225000          0.391440E-03
      0.230000          0.385169E-03
      0.235000          0.380686E-03
      0.240000          0.377239E-03
      0.245000          0.373942E-03
      0.250000          0.369950E-03
      0.255000          0.364621E-03
      0.260000          0.357630E-03
      0.265000          0.348996E-03
      0.270000          0.339026E-03
      0.275000          0.328198E-03
      0.280000          0.317010E-03
      0.285000          0.305854E-03
      0.290000          0.294928E-03
      0.295000          0.284233E-03
      0.300000          0.273616E-03
      0.305000          0.262876E-03
      0.310000          0.251870E-03
      0.315000          0.240608E-03
      0.320000          0.229292E-03
      0.325000          0.218296E-03
      0.330000          0.208099E-03
      0.335000          0.199171E-03
      0.340000          0.191866E-03
      0.345000          0.186327E-03
      0.350000          0.182454E-03
      0.355000          0.179909E-03
      0.360000          0.178196E-03
      0.365000          0.176752E-03
      0.370000          0.175071E-03
      0.375000          0.172792E-03
      0.380000          0.169759E-03
      0.385000          0.166034E-03
      0.390000          0.161854E-03
      0.395000          0.157562E-03
      0.400000          0.153519E-03
      0.405000          0.150013E-03
      0.410000          0.147210E-03
      0.415000          0.145116E-03
      0.420000          0.143595E-03
      0.425000          0.142406E-03
      0.430000          0.141262E-03
      0.435000          0.139890E-03
      0.440000          0.138084E-03
      0.445000          0.135732E-03
      0.450000          0.132830E-03
      0.455000          0.129461E-03
      0.460000          0.125771E-03
      0.465000          0.121932E-03
      0.470000          0.118111E-03
      0.475000          0.114444E-03
      0.480000          0.111027E-03
      0.485000          0.107913E-03
      0.490000          0.105124E-03
      0.495000          0.102659E-03
      0.500000          0.100509E-03
