 I_abs(s)[cm^-1]/c[mg/ml]
       0.00000          0.145050E-01
      0.500000E-02      0.144255E-01
      0.100000E-01      0.141903E-01
      0.150000E-01      0.138081E-01
      0.200000E-01      0.132932E-01
      0.250000E-01      0.126643E-01
      0.300000E-01      0.119431E-01
      0.350000E-01      0.111533E-01
      0.400000E-01      0.103192E-01
      0.450000E-01      0.946410E-02
      0.500000E-01      0.860948E-02
      0.550000E-01      0.777398E-02
      0.600000E-01      0.697280E-02
      0.650000E-01      0.621743E-02
      0.700000E-01      0.551564E-02
      0.750000E-01      0.487175E-02
      0.800000E-01      0.428712E-02
      0.850000E-01      0.376069E-02
      0.900000E-01      0.328973E-02
      0.950000E-01      0.287042E-02
      0.100000          0.249843E-02
      0.105000          0.216943E-02
      0.110000          0.187935E-02
      0.115000          0.162464E-02
      0.120000          0.140224E-02
      0.125000          0.120959E-02
      0.130000          0.104449E-02
      0.135000          0.904923E-03
      0.140000          0.788928E-03
      0.145000          0.694454E-03
      0.150000          0.619279E-03
      0.155000          0.560990E-03
      0.160000          0.517006E-03
      0.165000          0.484659E-03
      0.170000          0.461299E-03
      0.175000          0.444416E-03
      0.180000          0.431754E-03
      0.185000          0.421412E-03
      0.190000          0.411900E-03
      0.195000          0.402173E-03
      0.200000          0.391610E-03
      0.205000          0.379973E-03
      0.210000          0.367333E-03
      0.215000          0.353979E-03
      0.220000          0.340328E-03
      0.225000          0.326840E-03
      0.230000          0.313941E-03
      0.235000          0.301976E-03
      0.240000          0.291169E-03
      0.245000          0.281623E-03
      0.250000          0.273320E-03
      0.255000          0.266143E-03
      0.260000          0.259910E-03
      0.265000          0.254400E-03
      0.270000          0.249387E-03
      0.275000          0.244662E-03
      0.280000          0.240052E-03
      0.285000          0.235430E-03
      0.290000          0.230715E-03
      0.295000          0.225869E-03
      0.300000          0.220890E-03
      0.305000          0.215799E-03
      0.310000          0.210635E-03
      0.315000          0.205442E-03
      0.320000          0.200269E-03
      0.325000          0.195161E-03
      0.330000          0.190161E-03
      0.335000          0.185313E-03
      0.340000          0.180660E-03
      0.345000          0.176247E-03
      0.350000          0.172122E-03
      0.355000          0.168333E-03
      0.360000          0.164926E-03
      0.365000          0.161940E-03
      0.370000          0.159400E-03
      0.375000          0.157313E-03
      0.380000          0.155662E-03
      0.385000          0.154401E-03
      0.390000          0.153459E-03
      0.395000          0.152737E-03
      0.400000          0.152117E-03
      0.405000          0.151466E-03
      0.410000          0.150651E-03
      0.415000          0.149548E-03
      0.420000          0.148051E-03
      0.425000          0.146084E-03
      0.430000          0.143605E-03
      0.435000          0.140614E-03
      0.440000          0.137145E-03
      0.445000          0.133268E-03
      0.450000          0.129079E-03
      0.455000          0.124688E-03
      0.460000          0.120210E-03
      0.465000          0.115753E-03
      0.470000          0.111411E-03
      0.475000          0.107252E-03
      0.480000          0.103320E-03
      0.485000          0.996344E-04
      0.490000          0.961910E-04
      0.495000          0.929717E-04
      0.500000          0.899510E-04
