 I_abs(s)[cm^-1]/c[mg/ml]
       0.00000          0.145605E-01
      0.500000E-02      0.144982E-01
      0.100000E-01      0.143130E-01
      0.150000E-01      0.140093E-01
      0.200000E-01      0.135945E-01
      0.250000E-01      0.130784E-01
      0.300000E-01      0.124731E-01
      0.350000E-01      0.117925E-01
      0.400000E-01      0.110516E-01
      0.450000E-01      0.102662E-01
      0.500000E-01      0.945241E-02
      0.550000E-01      0.862598E-02
      0.600000E-01      0.780189E-02
      0.650000E-01      0.699395E-02
      0.700000E-01      0.621443E-02
      0.750000E-01      0.547380E-02
      0.800000E-01      0.478057E-02
      0.850000E-01      0.414116E-02
      0.900000E-01      0.355992E-02
      0.950000E-01      0.303921E-02
      0.100000          0.257955E-02
      0.105000          0.217980E-02
      0.110000          0.183741E-02
      0.115000          0.154871E-02
      0.120000          0.130920E-02
      0.125000          0.111378E-02
      0.130000          0.957086E-03
      0.135000          0.833670E-03
      0.140000          0.738240E-03
      0.145000          0.665811E-03
      0.150000          0.611838E-03
      0.155000          0.572289E-03
      0.160000          0.543696E-03
      0.165000          0.523159E-03
      0.170000          0.508326E-03
      0.175000          0.497348E-03
      0.180000          0.488820E-03
      0.185000          0.481711E-03
      0.190000          0.475292E-03
      0.195000          0.469065E-03
      0.200000          0.462702E-03
      0.205000          0.455988E-03
      0.210000          0.448780E-03
      0.215000          0.440976E-03
      0.220000          0.432493E-03
      0.225000          0.423263E-03
      0.230000          0.413222E-03
      0.235000          0.402324E-03
      0.240000          0.390542E-03
      0.245000          0.377879E-03
      0.250000          0.364378E-03
      0.255000          0.350124E-03
      0.260000          0.335248E-03
      0.265000          0.319927E-03
      0.270000          0.304375E-03
      0.275000          0.288838E-03
      0.280000          0.273577E-03
      0.285000          0.258857E-03
      0.290000          0.244932E-03
      0.295000          0.232030E-03
      0.300000          0.220342E-03
      0.305000          0.210010E-03
      0.310000          0.201122E-03
      0.315000          0.193705E-03
      0.320000          0.187731E-03
      0.325000          0.183117E-03
      0.330000          0.179731E-03
      0.335000          0.177404E-03
      0.340000          0.175942E-03
      0.345000          0.175131E-03
      0.350000          0.174760E-03
      0.355000          0.174622E-03
      0.360000          0.174531E-03
      0.365000          0.174326E-03
      0.370000          0.173878E-03
      0.375000          0.173094E-03
      0.380000          0.171918E-03
      0.385000          0.170328E-03
      0.390000          0.168334E-03
      0.395000          0.165973E-03
      0.400000          0.163302E-03
      0.405000          0.160392E-03
      0.410000          0.157320E-03
      0.415000          0.154166E-03
      0.420000          0.151001E-03
      0.425000          0.147888E-03
      0.430000          0.144878E-03
      0.435000          0.142004E-03
      0.440000          0.139284E-03
      0.445000          0.136718E-03
      0.450000          0.134296E-03
      0.455000          0.131992E-03
      0.460000          0.129774E-03
      0.465000          0.127605E-03
      0.470000          0.125447E-03
      0.475000          0.123263E-03
      0.480000          0.121022E-03
      0.485000          0.118700E-03
      0.490000          0.116283E-03
      0.495000          0.113766E-03
      0.500000          0.111155E-03
