 I_abs(s)[cm^-1]/c[mg/ml]
       0.00000          0.142134E-01
      0.500000E-02      0.141292E-01
      0.100000E-01      0.138795E-01
      0.150000E-01      0.134730E-01
      0.200000E-01      0.129234E-01
      0.250000E-01      0.122491E-01
      0.300000E-01      0.114721E-01
      0.350000E-01      0.106167E-01
      0.400000E-01      0.970869E-02
      0.450000E-01      0.877386E-02
      0.500000E-01      0.783703E-02
      0.550000E-01      0.692097E-02
      0.600000E-01      0.604560E-02
      0.650000E-01      0.522736E-02
      0.700000E-01      0.447885E-02
      0.750000E-01      0.380865E-02
      0.800000E-01      0.322144E-02
      0.850000E-01      0.271820E-02
      0.900000E-01      0.229675E-02
      0.950000E-01      0.195219E-02
      0.100000          0.167759E-02
      0.105000          0.146458E-02
      0.110000          0.130402E-02
      0.115000          0.118651E-02
      0.120000          0.110289E-02
      0.125000          0.104468E-02
      0.130000          0.100427E-02
      0.135000          0.975197E-03
      0.140000          0.952171E-03
      0.145000          0.931101E-03
      0.150000          0.909028E-03
      0.155000          0.884016E-03
      0.160000          0.855005E-03
      0.165000          0.821656E-03
      0.170000          0.784182E-03
      0.175000          0.743199E-03
      0.180000          0.699582E-03
      0.185000          0.654346E-03
      0.190000          0.608548E-03
      0.195000          0.563211E-03
      0.200000          0.519268E-03
      0.205000          0.477524E-03
      0.210000          0.438632E-03
      0.215000          0.403091E-03
      0.220000          0.371237E-03
      0.225000          0.343258E-03
      0.230000          0.319206E-03
      0.235000          0.299009E-03
      0.240000          0.282495E-03
      0.245000          0.269404E-03
      0.250000          0.259413E-03
      0.255000          0.252150E-03
      0.260000          0.247211E-03
      0.265000          0.244175E-03
      0.270000          0.242620E-03
      0.275000          0.242129E-03
      0.280000          0.242310E-03
      0.285000          0.242796E-03
      0.290000          0.243259E-03
      0.295000          0.243414E-03
      0.300000          0.243025E-03
      0.305000          0.241910E-03
      0.310000          0.239942E-03
      0.315000          0.237047E-03
      0.320000          0.233209E-03
      0.325000          0.228462E-03
      0.330000          0.222884E-03
      0.335000          0.216594E-03
      0.340000          0.209741E-03
      0.345000          0.202495E-03
      0.350000          0.195037E-03
      0.355000          0.187548E-03
      0.360000          0.180202E-03
      0.365000          0.173158E-03
      0.370000          0.166548E-03
      0.375000          0.160480E-03
      0.380000          0.155029E-03
      0.385000          0.150241E-03
      0.390000          0.146129E-03
      0.395000          0.142681E-03
      0.400000          0.139860E-03
      0.405000          0.137607E-03
      0.410000          0.135851E-03
      0.415000          0.134510E-03
      0.420000          0.133496E-03
      0.425000          0.132719E-03
      0.430000          0.132093E-03
      0.435000          0.131534E-03
      0.440000          0.130969E-03
      0.445000          0.130330E-03
      0.450000          0.129565E-03
      0.455000          0.128631E-03
      0.460000          0.127498E-03
      0.465000          0.126149E-03
      0.470000          0.124580E-03
      0.475000          0.122799E-03
      0.480000          0.120823E-03
      0.485000          0.118681E-03
      0.490000          0.116406E-03
      0.495000          0.114036E-03
      0.500000          0.111610E-03
