 I_abs(s)[cm^-1]/c[mg/ml]
       0.00000          0.141664E-01
      0.500000E-02      0.141054E-01
      0.100000E-01      0.139237E-01
      0.150000E-01      0.136261E-01
      0.200000E-01      0.132200E-01
      0.250000E-01      0.127153E-01
      0.300000E-01      0.121242E-01
      0.350000E-01      0.114607E-01
      0.400000E-01      0.107399E-01
      0.450000E-01      0.997766E-02
      0.500000E-01      0.918996E-02
      0.550000E-01      0.839242E-02
      0.600000E-01      0.759980E-02
      0.650000E-01      0.682560E-02
      0.700000E-01      0.608171E-02
      0.750000E-01      0.537817E-02
      0.800000E-01      0.472298E-02
      0.850000E-01      0.412205E-02
      0.900000E-01      0.357922E-02
      0.950000E-01      0.309632E-02
      0.100000          0.267338E-02
      0.105000          0.230877E-02
      0.110000          0.199955E-02
      0.115000          0.174166E-02
      0.120000          0.153024E-02
      0.125000          0.135991E-02
      0.130000          0.122502E-02
      0.135000          0.111989E-02
      0.140000          0.103900E-02
      0.145000          0.977188E-03
      0.150000          0.929734E-03
      0.155000          0.892483E-03
      0.160000          0.861880E-03
      0.165000          0.834996E-03
      0.170000          0.809519E-03
      0.175000          0.783725E-03
      0.180000          0.756429E-03
      0.185000          0.726927E-03
      0.190000          0.694925E-03
      0.195000          0.660469E-03
      0.200000          0.623871E-03
      0.205000          0.585640E-03
      0.210000          0.546417E-03
      0.215000          0.506917E-03
      0.220000          0.467874E-03
      0.225000          0.429999E-03
      0.230000          0.393942E-03
      0.235000          0.360270E-03
      0.240000          0.329440E-03
      0.245000          0.301791E-03
      0.250000          0.277537E-03
      0.255000          0.256769E-03
      0.260000          0.239463E-03
      0.265000          0.225487E-03
      0.270000          0.214621E-03
      0.275000          0.206571E-03
      0.280000          0.200989E-03
      0.285000          0.197494E-03
      0.290000          0.195690E-03
      0.295000          0.195181E-03
      0.300000          0.195591E-03
      0.305000          0.196575E-03
      0.310000          0.197827E-03
      0.315000          0.199087E-03
      0.320000          0.200145E-03
      0.325000          0.200841E-03
      0.330000          0.201060E-03
      0.335000          0.200733E-03
      0.340000          0.199823E-03
      0.345000          0.198325E-03
      0.350000          0.196258E-03
      0.355000          0.193654E-03
      0.360000          0.190558E-03
      0.365000          0.187021E-03
      0.370000          0.183092E-03
      0.375000          0.178826E-03
      0.380000          0.174271E-03
      0.385000          0.169479E-03
      0.390000          0.164496E-03
      0.395000          0.159373E-03
      0.400000          0.154158E-03
      0.405000          0.148904E-03
      0.410000          0.143665E-03
      0.415000          0.138498E-03
      0.420000          0.133460E-03
      0.425000          0.128612E-03
      0.430000          0.124008E-03
      0.435000          0.119703E-03
      0.440000          0.115744E-03
      0.445000          0.112169E-03
      0.450000          0.109008E-03
      0.455000          0.106277E-03
      0.460000          0.103980E-03
      0.465000          0.102109E-03
      0.470000          0.100644E-03
      0.475000          0.995532E-04
      0.480000          0.987952E-04
      0.485000          0.983220E-04
      0.490000          0.980810E-04
      0.495000          0.980174E-04
      0.500000          0.980770E-04
