 I_abs(s)[cm^-1]/c[mg/ml]
       0.00000          0.140883E-01
      0.500000E-02      0.140093E-01
      0.100000E-01      0.137750E-01
      0.150000E-01      0.133921E-01
      0.200000E-01      0.128722E-01
      0.250000E-01      0.122303E-01
      0.300000E-01      0.114849E-01
      0.350000E-01      0.106568E-01
      0.400000E-01      0.976848E-02
      0.450000E-01      0.884314E-02
      0.500000E-01      0.790381E-02
      0.550000E-01      0.697248E-02
      0.600000E-01      0.606941E-02
      0.650000E-01      0.521243E-02
      0.700000E-01      0.441647E-02
      0.750000E-01      0.369316E-02
      0.800000E-01      0.305073E-02
      0.850000E-01      0.249389E-02
      0.900000E-01      0.202406E-02
      0.950000E-01      0.163956E-02
      0.100000          0.133603E-02
      0.105000          0.110691E-02
      0.110000          0.943912E-03
      0.115000          0.837587E-03
      0.120000          0.777873E-03
      0.125000          0.754588E-03
      0.130000          0.757882E-03
      0.135000          0.778624E-03
      0.140000          0.808695E-03
      0.145000          0.841205E-03
      0.150000          0.870610E-03
      0.155000          0.892754E-03
      0.160000          0.904835E-03
      0.165000          0.905301E-03
      0.170000          0.893711E-03
      0.175000          0.870546E-03
      0.180000          0.837015E-03
      0.185000          0.794846E-03
      0.190000          0.746088E-03
      0.195000          0.692928E-03
      0.200000          0.637538E-03
      0.205000          0.581943E-03
      0.210000          0.527926E-03
      0.215000          0.476964E-03
      0.220000          0.430192E-03
      0.225000          0.388396E-03
      0.230000          0.352025E-03
      0.235000          0.321225E-03
      0.240000          0.295879E-03
      0.245000          0.275658E-03
      0.250000          0.260077E-03
      0.255000          0.248541E-03
      0.260000          0.240399E-03
      0.265000          0.234984E-03
      0.270000          0.231646E-03
      0.275000          0.229783E-03
      0.280000          0.228858E-03
      0.285000          0.228414E-03
      0.290000          0.228076E-03
      0.295000          0.227556E-03
      0.300000          0.226645E-03
      0.305000          0.225212E-03
      0.310000          0.223189E-03
      0.315000          0.220564E-03
      0.320000          0.217370E-03
      0.325000          0.213675E-03
      0.330000          0.209568E-03
      0.335000          0.205153E-03
      0.340000          0.200540E-03
      0.345000          0.195836E-03
      0.350000          0.191139E-03
      0.355000          0.186534E-03
      0.360000          0.182091E-03
      0.365000          0.177860E-03
      0.370000          0.173872E-03
      0.375000          0.170140E-03
      0.380000          0.166659E-03
      0.385000          0.163409E-03
      0.390000          0.160358E-03
      0.395000          0.157467E-03
      0.400000          0.154694E-03
      0.405000          0.151994E-03
      0.410000          0.149327E-03
      0.415000          0.146662E-03
      0.420000          0.143973E-03
      0.425000          0.141248E-03
      0.430000          0.138486E-03
      0.435000          0.135697E-03
      0.440000          0.132902E-03
      0.445000          0.130130E-03
      0.450000          0.127417E-03
      0.455000          0.124803E-03
      0.460000          0.122327E-03
      0.465000          0.120027E-03
      0.470000          0.117934E-03
      0.475000          0.116072E-03
      0.480000          0.114455E-03
      0.485000          0.113085E-03
      0.490000          0.111955E-03
      0.495000          0.111044E-03
      0.500000          0.110324E-03
