 I_abs(s)[cm^-1]/c[mg/ml]
       0.00000          0.144101E-01
      0.500000E-02      0.143496E-01
      0.100000E-01      0.141697E-01
      0.150000E-01      0.138745E-01
      0.200000E-01      0.134711E-01
      0.250000E-01      0.129687E-01
      0.300000E-01      0.123787E-01
      0.350000E-01      0.117144E-01
      0.400000E-01      0.109902E-01
      0.450000E-01      0.102211E-01
      0.500000E-01      0.942285E-02
      0.550000E-01      0.861062E-02
      0.600000E-01      0.779914E-02
      0.650000E-01      0.700205E-02
      0.700000E-01      0.623162E-02
      0.750000E-01      0.549845E-02
      0.800000E-01      0.481126E-02
      0.850000E-01      0.417681E-02
      0.900000E-01      0.359982E-02
      0.950000E-01      0.308303E-02
      0.100000          0.262729E-02
      0.105000          0.223175E-02
      0.110000          0.189406E-02
      0.115000          0.161064E-02
      0.120000          0.137693E-02
      0.125000          0.118768E-02
      0.130000          0.103723E-02
      0.135000          0.919781E-03
      0.140000          0.829599E-03
      0.145000          0.761238E-03
      0.150000          0.709690E-03
      0.155000          0.670512E-03
      0.160000          0.639896E-03
      0.165000          0.614714E-03
      0.170000          0.592511E-03
      0.175000          0.571482E-03
      0.180000          0.550410E-03
      0.185000          0.528593E-03
      0.190000          0.505754E-03
      0.195000          0.481951E-03
      0.200000          0.457477E-03
      0.205000          0.432776E-03
      0.210000          0.408361E-03
      0.215000          0.384747E-03
      0.220000          0.362399E-03
      0.225000          0.341690E-03
      0.230000          0.322883E-03
      0.235000          0.306117E-03
      0.240000          0.291411E-03
      0.245000          0.278676E-03
      0.250000          0.267731E-03
      0.255000          0.258333E-03
      0.260000          0.250196E-03
      0.265000          0.243022E-03
      0.270000          0.236520E-03
      0.275000          0.230430E-03
      0.280000          0.224535E-03
      0.285000          0.218674E-03
      0.290000          0.212744E-03
      0.295000          0.206701E-03
      0.300000          0.200557E-03
      0.305000          0.194369E-03
      0.310000          0.188229E-03
      0.315000          0.182252E-03
      0.320000          0.176565E-03
      0.325000          0.171291E-03
      0.330000          0.166541E-03
      0.335000          0.162405E-03
      0.340000          0.158944E-03
      0.345000          0.156186E-03
      0.350000          0.154128E-03
      0.355000          0.152733E-03
      0.360000          0.151937E-03
      0.365000          0.151650E-03
      0.370000          0.151768E-03
      0.375000          0.152172E-03
      0.380000          0.152745E-03
      0.385000          0.153369E-03
      0.390000          0.153936E-03
      0.395000          0.154355E-03
      0.400000          0.154548E-03
      0.405000          0.154459E-03
      0.410000          0.154051E-03
      0.415000          0.153308E-03
      0.420000          0.152231E-03
      0.425000          0.150837E-03
      0.430000          0.149153E-03
      0.435000          0.147219E-03
      0.440000          0.145076E-03
      0.445000          0.142769E-03
      0.450000          0.140342E-03
      0.455000          0.137836E-03
      0.460000          0.135286E-03
      0.465000          0.132722E-03
      0.470000          0.130167E-03
      0.475000          0.127637E-03
      0.480000          0.125143E-03
      0.485000          0.122691E-03
      0.490000          0.120284E-03
      0.495000          0.117923E-03
      0.500000          0.115607E-03
