 I_abs(s)[cm^-1]/c[mg/ml]
       0.00000          0.138628E-01
      0.500000E-02      0.137979E-01
      0.100000E-01      0.136051E-01
      0.150000E-01      0.132895E-01
      0.200000E-01      0.128594E-01
      0.250000E-01      0.123260E-01
      0.300000E-01      0.117030E-01
      0.350000E-01      0.110061E-01
      0.400000E-01      0.102521E-01
      0.450000E-01      0.945864E-02
      0.500000E-01      0.864353E-02
      0.550000E-01      0.782396E-02
      0.600000E-01      0.701611E-02
      0.650000E-01      0.623460E-02
      0.700000E-01      0.549212E-02
      0.750000E-01      0.479913E-02
      0.800000E-01      0.416365E-02
      0.850000E-01      0.359125E-02
      0.900000E-01      0.308499E-02
      0.950000E-01      0.264565E-02
      0.100000          0.227185E-02
      0.105000          0.196041E-02
      0.110000          0.170660E-02
      0.115000          0.150459E-02
      0.120000          0.134773E-02
      0.125000          0.122898E-02
      0.130000          0.114121E-02
      0.135000          0.107751E-02
      0.140000          0.103143E-02
      0.145000          0.997232E-03
      0.150000          0.969952E-03
      0.155000          0.945545E-03
      0.160000          0.920891E-03
      0.165000          0.893781E-03
      0.170000          0.862855E-03
      0.175000          0.827511E-03
      0.180000          0.787791E-03
      0.185000          0.744242E-03
      0.190000          0.697789E-03
      0.195000          0.649594E-03
      0.200000          0.600934E-03
      0.205000          0.553090E-03
      0.210000          0.507254E-03
      0.215000          0.464457E-03
      0.220000          0.425521E-03
      0.225000          0.391023E-03
      0.230000          0.361293E-03
      0.235000          0.336415E-03
      0.240000          0.316250E-03
      0.245000          0.300467E-03
      0.250000          0.288582E-03
      0.255000          0.280003E-03
      0.260000          0.274073E-03
      0.265000          0.270111E-03
      0.270000          0.267455E-03
      0.275000          0.265490E-03
      0.280000          0.263678E-03
      0.285000          0.261576E-03
      0.290000          0.258845E-03
      0.295000          0.255258E-03
      0.300000          0.250694E-03
      0.305000          0.245132E-03
      0.310000          0.238635E-03
      0.315000          0.231340E-03
      0.320000          0.223432E-03
      0.325000          0.215131E-03
      0.330000          0.206672E-03
      0.335000          0.198288E-03
      0.340000          0.190196E-03
      0.345000          0.182581E-03
      0.350000          0.175595E-03
      0.355000          0.169344E-03
      0.360000          0.163892E-03
      0.365000          0.159257E-03
      0.370000          0.155417E-03
      0.375000          0.152316E-03
      0.380000          0.149868E-03
      0.385000          0.147970E-03
      0.390000          0.146504E-03
      0.395000          0.145349E-03
      0.400000          0.144386E-03
      0.405000          0.143506E-03
      0.410000          0.142614E-03
      0.415000          0.141630E-03
      0.420000          0.140493E-03
      0.425000          0.139162E-03
      0.430000          0.137615E-03
      0.435000          0.135843E-03
      0.440000          0.133853E-03
      0.445000          0.131664E-03
      0.450000          0.129301E-03
      0.455000          0.126794E-03
      0.460000          0.124176E-03
      0.465000          0.121478E-03
      0.470000          0.118730E-03
      0.475000          0.115959E-03
      0.480000          0.113189E-03
      0.485000          0.110436E-03
      0.490000          0.107716E-03
      0.495000          0.105041E-03
      0.500000          0.102418E-03
