 I_abs(s)[cm^-1]/c[mg/ml]
       0.00000          0.138938E-01
      0.500000E-02      0.137702E-01
      0.100000E-01      0.134067E-01
      0.150000E-01      0.128243E-01
      0.200000E-01      0.120557E-01
      0.250000E-01      0.111422E-01
      0.300000E-01      0.101301E-01
      0.350000E-01      0.906645E-02
      0.400000E-01      0.799558E-02
      0.450000E-01      0.695604E-02
      0.500000E-01      0.597846E-02
      0.550000E-01      0.508464E-02
      0.600000E-01      0.428744E-02
      0.650000E-01      0.359176E-02
      0.700000E-01      0.299595E-02
      0.750000E-01      0.249362E-02
      0.800000E-01      0.207549E-02
      0.850000E-01      0.173098E-02
      0.900000E-01      0.144946E-02
      0.950000E-01      0.122108E-02
      0.100000          0.103726E-02
      0.105000          0.890698E-03
      0.110000          0.775318E-03
      0.115000          0.686011E-03
      0.120000          0.618390E-03
      0.125000          0.568597E-03
      0.130000          0.533180E-03
      0.135000          0.509039E-03
      0.140000          0.493432E-03
      0.145000          0.483991E-03
      0.150000          0.478733E-03
      0.155000          0.476048E-03
      0.160000          0.474664E-03
      0.165000          0.473584E-03
      0.170000          0.472034E-03
      0.175000          0.469411E-03
      0.180000          0.465267E-03
      0.185000          0.459298E-03
      0.190000          0.451368E-03
      0.195000          0.441523E-03
      0.200000          0.430001E-03
      0.205000          0.417216E-03
      0.210000          0.403721E-03
      0.215000          0.390142E-03
      0.220000          0.377101E-03
      0.225000          0.365136E-03
      0.230000          0.354639E-03
      0.235000          0.345814E-03
      0.240000          0.338668E-03
      0.245000          0.333034E-03
      0.250000          0.328615E-03
      0.255000          0.325040E-03
      0.260000          0.321915E-03
      0.265000          0.318881E-03
      0.270000          0.315631E-03
      0.275000          0.311935E-03
      0.280000          0.307632E-03
      0.285000          0.302618E-03
      0.290000          0.296841E-03
      0.295000          0.290284E-03
      0.300000          0.282963E-03
      0.305000          0.274933E-03
      0.310000          0.266288E-03
      0.315000          0.257170E-03
      0.320000          0.247770E-03
      0.325000          0.238312E-03
      0.330000          0.229045E-03
      0.335000          0.220213E-03
      0.340000          0.212027E-03
      0.345000          0.204642E-03
      0.350000          0.198137E-03
      0.355000          0.192510E-03
      0.360000          0.187676E-03
      0.365000          0.183493E-03
      0.370000          0.179778E-03
      0.375000          0.176340E-03
      0.380000          0.173008E-03
      0.385000          0.169650E-03
      0.390000          0.166191E-03
      0.395000          0.162610E-03
      0.400000          0.158943E-03
      0.405000          0.155260E-03
      0.410000          0.151656E-03
      0.415000          0.148226E-03
      0.420000          0.145054E-03
      0.425000          0.142192E-03
      0.430000          0.139663E-03
      0.435000          0.137448E-03
      0.440000          0.135498E-03
      0.445000          0.133736E-03
      0.450000          0.132070E-03
      0.455000          0.130402E-03
      0.460000          0.128646E-03
      0.465000          0.126731E-03
      0.470000          0.124615E-03
      0.475000          0.122286E-03
      0.480000          0.119769E-03
      0.485000          0.117114E-03
      0.490000          0.114400E-03
      0.495000          0.111717E-03
      0.500000          0.109161E-03
