 I_abs(s)[cm^-1]/c[mg/ml]
       0.00000          0.146718E-01
      0.500000E-02      0.146126E-01
      0.100000E-01      0.144363E-01
      0.150000E-01      0.141469E-01
      0.200000E-01      0.137509E-01
      0.250000E-01      0.132573E-01
      0.300000E-01      0.126767E-01
      0.350000E-01      0.120216E-01
      0.400000E-01      0.113058E-01
      0.450000E-01      0.105437E-01
      0.500000E-01      0.975005E-02
      0.550000E-01      0.893964E-02
      0.600000E-01      0.812664E-02
      0.650000E-01      0.732430E-02
      0.700000E-01      0.654468E-02
      0.750000E-01      0.579829E-02
      0.800000E-01      0.509396E-02
      0.850000E-01      0.443869E-02
      0.900000E-01      0.383760E-02
      0.950000E-01      0.329393E-02
      0.100000          0.280916E-02
      0.105000          0.238313E-02
      0.110000          0.201423E-02
      0.115000          0.169961E-02
      0.120000          0.143546E-02
      0.125000          0.121719E-02
      0.130000          0.103978E-02
      0.135000          0.897930E-03
      0.140000          0.786326E-03
      0.145000          0.699822E-03
      0.150000          0.633590E-03
      0.155000          0.583246E-03
      0.160000          0.544933E-03
      0.165000          0.515369E-03
      0.170000          0.491865E-03
      0.175000          0.472309E-03
      0.180000          0.455126E-03
      0.185000          0.439229E-03
      0.190000          0.423941E-03
      0.195000          0.408925E-03
      0.200000          0.394102E-03
      0.205000          0.379576E-03
      0.210000          0.365563E-03
      0.215000          0.352329E-03
      0.220000          0.340143E-03
      0.225000          0.329236E-03
      0.230000          0.319773E-03
      0.235000          0.311842E-03
      0.240000          0.305445E-03
      0.245000          0.300501E-03
      0.250000          0.296861E-03
      0.255000          0.294316E-03
      0.260000          0.292618E-03
      0.265000          0.291497E-03
      0.270000          0.290678E-03
      0.275000          0.289901E-03
      0.280000          0.288927E-03
      0.285000          0.287554E-03
      0.290000          0.285624E-03
      0.295000          0.283020E-03
      0.300000          0.279675E-03
      0.305000          0.275564E-03
      0.310000          0.270700E-03
      0.315000          0.265131E-03
      0.320000          0.258934E-03
      0.325000          0.252203E-03
      0.330000          0.245048E-03
      0.335000          0.237585E-03
      0.340000          0.229932E-03
      0.345000          0.222206E-03
      0.350000          0.214513E-03
      0.355000          0.206955E-03
      0.360000          0.199618E-03
      0.365000          0.192579E-03
      0.370000          0.185900E-03
      0.375000          0.179629E-03
      0.380000          0.173804E-03
      0.385000          0.168447E-03
      0.390000          0.163569E-03
      0.395000          0.159170E-03
      0.400000          0.155236E-03
      0.405000          0.151746E-03
      0.410000          0.148670E-03
      0.415000          0.145966E-03
      0.420000          0.143589E-03
      0.425000          0.141485E-03
      0.430000          0.139600E-03
      0.435000          0.137873E-03
      0.440000          0.136247E-03
      0.445000          0.134664E-03
      0.450000          0.133070E-03
      0.455000          0.131418E-03
      0.460000          0.129668E-03
      0.465000          0.127787E-03
      0.470000          0.125753E-03
      0.475000          0.123555E-03
      0.480000          0.121194E-03
      0.485000          0.118678E-03
      0.490000          0.116028E-03
      0.495000          0.113272E-03
      0.500000          0.110446E-03
