 I_abs(s)[cm^-1]/c[mg/ml]
       0.00000          0.141742E-01
      0.500000E-02      0.141070E-01
      0.100000E-01      0.139073E-01
      0.150000E-01      0.135810E-01
      0.200000E-01      0.131377E-01
      0.250000E-01      0.125900E-01
      0.300000E-01      0.119532E-01
      0.350000E-01      0.112444E-01
      0.400000E-01      0.104820E-01
      0.450000E-01      0.968469E-02
      0.500000E-01      0.887068E-02
      0.550000E-01      0.805725E-02
      0.600000E-01      0.726003E-02
      0.650000E-01      0.649255E-02
      0.700000E-01      0.576596E-02
      0.750000E-01      0.508883E-02
      0.800000E-01      0.446714E-02
      0.850000E-01      0.390438E-02
      0.900000E-01      0.340176E-02
      0.950000E-01      0.295849E-02
      0.100000          0.257213E-02
      0.105000          0.223898E-02
      0.110000          0.195447E-02
      0.115000          0.171347E-02
      0.120000          0.151066E-02
      0.125000          0.134078E-02
      0.130000          0.119886E-02
      0.135000          0.108032E-02
      0.140000          0.981109E-03
      0.145000          0.897743E-03
      0.150000          0.827278E-03
      0.155000          0.767292E-03
      0.160000          0.715825E-03
      0.165000          0.671313E-03
      0.170000          0.632517E-03
      0.175000          0.598451E-03
      0.180000          0.568329E-03
      0.185000          0.541509E-03
      0.190000          0.517462E-03
      0.195000          0.495741E-03
      0.200000          0.475962E-03
      0.205000          0.457800E-03
      0.210000          0.440974E-03
      0.215000          0.425250E-03
      0.220000          0.410437E-03
      0.225000          0.396380E-03
      0.230000          0.382961E-03
      0.235000          0.370089E-03
      0.240000          0.357699E-03
      0.245000          0.345741E-03
      0.250000          0.334179E-03
      0.255000          0.322982E-03
      0.260000          0.312125E-03
      0.265000          0.301583E-03
      0.270000          0.291336E-03
      0.275000          0.281366E-03
      0.280000          0.271660E-03
      0.285000          0.262213E-03
      0.290000          0.253031E-03
      0.295000          0.244127E-03
      0.300000          0.235528E-03
      0.305000          0.227269E-03
      0.310000          0.219390E-03
      0.315000          0.211936E-03
      0.320000          0.204950E-03
      0.325000          0.198468E-03
      0.330000          0.192518E-03
      0.335000          0.187111E-03
      0.340000          0.182245E-03
      0.345000          0.177895E-03
      0.350000          0.174023E-03
      0.355000          0.170571E-03
      0.360000          0.167468E-03
      0.365000          0.164636E-03
      0.370000          0.161989E-03
      0.375000          0.159443E-03
      0.380000          0.156921E-03
      0.385000          0.154354E-03
      0.390000          0.151689E-03
      0.395000          0.148889E-03
      0.400000          0.145936E-03
      0.405000          0.142833E-03
      0.410000          0.139596E-03
      0.415000          0.136260E-03
      0.420000          0.132872E-03
      0.425000          0.129485E-03
      0.430000          0.126159E-03
      0.435000          0.122951E-03
      0.440000          0.119913E-03
      0.445000          0.117089E-03
      0.450000          0.114514E-03
      0.455000          0.112207E-03
      0.460000          0.110175E-03
      0.465000          0.108408E-03
      0.470000          0.106888E-03
      0.475000          0.105581E-03
      0.480000          0.104450E-03
      0.485000          0.103448E-03
      0.490000          0.102527E-03
      0.495000          0.101640E-03
      0.500000          0.100743E-03
