 I_abs(s)[cm^-1]/c[mg/ml]
       0.00000          0.143864E-01
      0.500000E-02      0.143175E-01
      0.100000E-01      0.141125E-01
      0.150000E-01      0.137771E-01
      0.200000E-01      0.133203E-01
      0.250000E-01      0.127540E-01
      0.300000E-01      0.120930E-01
      0.350000E-01      0.113538E-01
      0.400000E-01      0.105544E-01
      0.450000E-01      0.971343E-02
      0.500000E-01      0.884948E-02
      0.550000E-01      0.798047E-02
      0.600000E-01      0.712312E-02
      0.650000E-01      0.629243E-02
      0.700000E-01      0.550129E-02
      0.750000E-01      0.476026E-02
      0.800000E-01      0.407741E-02
      0.850000E-01      0.345829E-02
      0.900000E-01      0.290603E-02
      0.950000E-01      0.242152E-02
      0.100000          0.200362E-02
      0.105000          0.164953E-02
      0.110000          0.135509E-02
      0.115000          0.111512E-02
      0.120000          0.923783E-03
      0.125000          0.774907E-03
      0.130000          0.662251E-03
      0.135000          0.579752E-03
      0.140000          0.521718E-03
      0.145000          0.482965E-03
      0.150000          0.458905E-03
      0.155000          0.445593E-03
      0.160000          0.439737E-03
      0.165000          0.438671E-03
      0.170000          0.440309E-03
      0.175000          0.443085E-03
      0.180000          0.445878E-03
      0.185000          0.447940E-03
      0.190000          0.448820E-03
      0.195000          0.448300E-03
      0.200000          0.446332E-03
      0.205000          0.442986E-03
      0.210000          0.438409E-03
      0.215000          0.432786E-03
      0.220000          0.426321E-03
      0.225000          0.419210E-03
      0.230000          0.411629E-03
      0.235000          0.403730E-03
      0.240000          0.395629E-03
      0.245000          0.387407E-03
      0.250000          0.379114E-03
      0.255000          0.370768E-03
      0.260000          0.362361E-03
      0.265000          0.353866E-03
      0.270000          0.345243E-03
      0.275000          0.336448E-03
      0.280000          0.327438E-03
      0.285000          0.318179E-03
      0.290000          0.308651E-03
      0.295000          0.298854E-03
      0.300000          0.288810E-03
      0.305000          0.278563E-03
      0.310000          0.268177E-03
      0.315000          0.257737E-03
      0.320000          0.247341E-03
      0.325000          0.237097E-03
      0.330000          0.227112E-03
      0.335000          0.217494E-03
      0.340000          0.208337E-03
      0.345000          0.199720E-03
      0.350000          0.191703E-03
      0.355000          0.184325E-03
      0.360000          0.177598E-03
      0.365000          0.171514E-03
      0.370000          0.166044E-03
      0.375000          0.161140E-03
      0.380000          0.156741E-03
      0.385000          0.152780E-03
      0.390000          0.149185E-03
      0.395000          0.145886E-03
      0.400000          0.142819E-03
      0.405000          0.139929E-03
      0.410000          0.137176E-03
      0.415000          0.134528E-03
      0.420000          0.131972E-03
      0.425000          0.129502E-03
      0.430000          0.127126E-03
      0.435000          0.124859E-03
      0.440000          0.122720E-03
      0.445000          0.120730E-03
      0.450000          0.118908E-03
      0.455000          0.117269E-03
      0.460000          0.115822E-03
      0.465000          0.114567E-03
      0.470000          0.113495E-03
      0.475000          0.112589E-03
      0.480000          0.111825E-03
      0.485000          0.111170E-03
      0.490000          0.110589E-03
      0.495000          0.110044E-03
      0.500000          0.109497E-03
