 I_abs(s)[cm^-1]/c[mg/ml]
       0.00000          0.141821E-01
      0.500000E-02      0.140995E-01
      0.100000E-01      0.138547E-01
      0.150000E-01      0.134571E-01
      0.200000E-01      0.129211E-01
      0.250000E-01      0.122663E-01
      0.300000E-01      0.115153E-01
      0.350000E-01      0.106931E-01
      0.400000E-01      0.982570E-02
      0.450000E-01      0.893838E-02
      0.500000E-01      0.805488E-02
      0.550000E-01      0.719622E-02
      0.600000E-01      0.637999E-02
      0.650000E-01      0.561987E-02
      0.700000E-01      0.492547E-02
      0.750000E-01      0.430237E-02
      0.800000E-01      0.375250E-02
      0.850000E-01      0.327459E-02
      0.900000E-01      0.286484E-02
      0.950000E-01      0.251752E-02
      0.100000          0.222571E-02
      0.105000          0.198192E-02
      0.110000          0.177858E-02
      0.115000          0.160853E-02
      0.120000          0.146528E-02
      0.125000          0.134322E-02
      0.130000          0.123773E-02
      0.135000          0.114512E-02
      0.140000          0.106259E-02
      0.145000          0.988104E-03
      0.150000          0.920268E-03
      0.155000          0.858158E-03
      0.160000          0.801194E-03
      0.165000          0.749017E-03
      0.170000          0.701390E-03
      0.175000          0.658119E-03
      0.180000          0.618998E-03
      0.185000          0.583779E-03
      0.190000          0.552150E-03
      0.195000          0.523738E-03
      0.200000          0.498115E-03
      0.205000          0.474816E-03
      0.210000          0.453364E-03
      0.215000          0.433297E-03
      0.220000          0.414192E-03
      0.225000          0.395696E-03
      0.230000          0.377543E-03
      0.235000          0.359571E-03
      0.240000          0.341728E-03
      0.245000          0.324068E-03
      0.250000          0.306739E-03
      0.255000          0.289962E-03
      0.260000          0.274002E-03
      0.265000          0.259138E-03
      0.270000          0.245628E-03
      0.275000          0.233681E-03
      0.280000          0.223433E-03
      0.285000          0.214932E-03
      0.290000          0.208131E-03
      0.295000          0.202889E-03
      0.300000          0.198991E-03
      0.305000          0.196161E-03
      0.310000          0.194091E-03
      0.315000          0.192465E-03
      0.320000          0.190989E-03
      0.325000          0.189404E-03
      0.330000          0.187510E-03
      0.335000          0.185171E-03
      0.340000          0.182318E-03
      0.345000          0.178942E-03
      0.350000          0.175089E-03
      0.355000          0.170843E-03
      0.360000          0.166315E-03
      0.365000          0.161626E-03
      0.370000          0.156895E-03
      0.375000          0.152230E-03
      0.380000          0.147722E-03
      0.385000          0.143441E-03
      0.390000          0.139434E-03
      0.395000          0.135729E-03
      0.400000          0.132337E-03
      0.405000          0.129255E-03
      0.410000          0.126470E-03
      0.415000          0.123964E-03
      0.420000          0.121711E-03
      0.425000          0.119685E-03
      0.430000          0.117855E-03
      0.435000          0.116189E-03
      0.440000          0.114655E-03
      0.445000          0.113216E-03
      0.450000          0.111838E-03
      0.455000          0.110485E-03
      0.460000          0.109127E-03
      0.465000          0.107734E-03
      0.470000          0.106283E-03
      0.475000          0.104759E-03
      0.480000          0.103152E-03
      0.485000          0.101461E-03
      0.490000          0.996926E-04
      0.495000          0.978572E-04
      0.500000          0.959711E-04
