 I_abs(s)[cm^-1]/c[mg/ml]
       0.00000          0.144575E-01
      0.500000E-02      0.143917E-01
      0.100000E-01      0.141961E-01
      0.150000E-01      0.138758E-01
      0.200000E-01      0.134394E-01
      0.250000E-01      0.128983E-01
      0.300000E-01      0.122662E-01
      0.350000E-01      0.115589E-01
      0.400000E-01      0.107935E-01
      0.450000E-01      0.998784E-02
      0.500000E-01      0.915961E-02
      0.550000E-01      0.832608E-02
      0.600000E-01      0.750337E-02
      0.650000E-01      0.670599E-02
      0.700000E-01      0.594644E-02
      0.750000E-01      0.523497E-02
      0.800000E-01      0.457938E-02
      0.850000E-01      0.398495E-02
      0.900000E-01      0.345457E-02
      0.950000E-01      0.298882E-02
      0.100000          0.258626E-02
      0.105000          0.224368E-02
      0.110000          0.195650E-02
      0.115000          0.171912E-02
      0.120000          0.152528E-02
      0.125000          0.136842E-02
      0.130000          0.124203E-02
      0.135000          0.113987E-02
      0.140000          0.105627E-02
      0.145000          0.986215E-03
      0.150000          0.925519E-03
      0.155000          0.870821E-03
      0.160000          0.819597E-03
      0.165000          0.770107E-03
      0.170000          0.721309E-03
      0.175000          0.672744E-03
      0.180000          0.624416E-03
      0.185000          0.576660E-03
      0.190000          0.530022E-03
      0.195000          0.485142E-03
      0.200000          0.442665E-03
      0.205000          0.403165E-03
      0.210000          0.367093E-03
      0.215000          0.334750E-03
      0.220000          0.306275E-03
      0.225000          0.281651E-03
      0.230000          0.260728E-03
      0.235000          0.243247E-03
      0.240000          0.228877E-03
      0.245000          0.217244E-03
      0.250000          0.207967E-03
      0.255000          0.200679E-03
      0.260000          0.195050E-03
      0.265000          0.190795E-03
      0.270000          0.187685E-03
      0.275000          0.185539E-03
      0.280000          0.184222E-03
      0.285000          0.183631E-03
      0.290000          0.183686E-03
      0.295000          0.184314E-03
      0.300000          0.185441E-03
      0.305000          0.186982E-03
      0.310000          0.188834E-03
      0.315000          0.190878E-03
      0.320000          0.192977E-03
      0.325000          0.194981E-03
      0.330000          0.196738E-03
      0.335000          0.198099E-03
      0.340000          0.198929E-03
      0.345000          0.199116E-03
      0.350000          0.198579E-03
      0.355000          0.197272E-03
      0.360000          0.195188E-03
      0.365000          0.192361E-03
      0.370000          0.188859E-03
      0.375000          0.184786E-03
      0.380000          0.180267E-03
      0.385000          0.175444E-03
      0.390000          0.170468E-03
      0.395000          0.165485E-03
      0.400000          0.160631E-03
      0.405000          0.156022E-03
      0.410000          0.151750E-03
      0.415000          0.147879E-03
      0.420000          0.144441E-03
      0.425000          0.141440E-03
      0.430000          0.138850E-03
      0.435000          0.136625E-03
      0.440000          0.134699E-03
      0.445000          0.132994E-03
      0.450000          0.131429E-03
      0.455000          0.129921E-03
      0.460000          0.128396E-03
      0.465000          0.126791E-03
      0.470000          0.125058E-03
      0.475000          0.123167E-03
      0.480000          0.121104E-03
      0.485000          0.118875E-03
      0.490000          0.116502E-03
      0.495000          0.114019E-03
      0.500000          0.111470E-03
