 I_abs(s)[cm^-1]/c[mg/ml]
       0.00000          0.138628E-01
      0.500000E-02      0.137430E-01
      0.100000E-01      0.133907E-01
      0.150000E-01      0.128264E-01
      0.200000E-01      0.120824E-01
      0.250000E-01      0.111992E-01
      0.300000E-01      0.102226E-01
      0.350000E-01      0.919930E-02
      0.400000E-01      0.817323E-02
      0.450000E-01      0.718269E-02
      0.500000E-01      0.625791E-02
      0.550000E-01      0.541990E-02
      0.600000E-01      0.468024E-02
      0.650000E-01      0.404197E-02
      0.700000E-01      0.350098E-02
      0.750000E-01      0.304805E-02
      0.800000E-01      0.267091E-02
      0.850000E-01      0.235622E-02
      0.900000E-01      0.209116E-02
      0.950000E-01      0.186461E-02
      0.100000          0.166777E-02
      0.105000          0.149428E-02
      0.110000          0.134000E-02
      0.115000          0.120256E-02
      0.120000          0.108070E-02
      0.125000          0.973787E-03
      0.130000          0.881290E-03
      0.135000          0.802533E-03
      0.140000          0.736539E-03
      0.145000          0.682043E-03
      0.150000          0.637594E-03
      0.155000          0.601691E-03
      0.160000          0.572914E-03
      0.165000          0.550010E-03
      0.170000          0.531926E-03
      0.175000          0.517788E-03
      0.180000          0.506852E-03
      0.185000          0.498431E-03
      0.190000          0.491848E-03
      0.195000          0.486401E-03
      0.200000          0.481372E-03
      0.205000          0.476061E-03
      0.210000          0.469841E-03
      0.215000          0.462216E-03
      0.220000          0.452867E-03
      0.225000          0.441678E-03
      0.230000          0.428735E-03
      0.235000          0.414293E-03
      0.240000          0.398734E-03
      0.245000          0.382503E-03
      0.250000          0.366055E-03
      0.255000          0.349807E-03
      0.260000          0.334107E-03
      0.265000          0.319218E-03
      0.270000          0.305317E-03
      0.275000          0.292506E-03
      0.280000          0.280819E-03
      0.285000          0.270240E-03
      0.290000          0.260708E-03
      0.295000          0.252127E-03
      0.300000          0.244368E-03
      0.305000          0.237273E-03
      0.310000          0.230671E-03
      0.315000          0.224383E-03
      0.320000          0.218243E-03
      0.325000          0.212118E-03
      0.330000          0.205920E-03
      0.335000          0.199620E-03
      0.340000          0.193251E-03
      0.345000          0.186895E-03
      0.350000          0.180676E-03
      0.355000          0.174728E-03
      0.360000          0.169180E-03
      0.365000          0.164126E-03
      0.370000          0.159618E-03
      0.375000          0.155658E-03
      0.380000          0.152201E-03
      0.385000          0.149174E-03
      0.390000          0.146489E-03
      0.395000          0.144064E-03
      0.400000          0.141837E-03
      0.405000          0.139776E-03
      0.410000          0.137877E-03
      0.415000          0.136158E-03
      0.420000          0.134645E-03
      0.425000          0.133356E-03
      0.430000          0.132290E-03
      0.435000          0.131417E-03
      0.440000          0.130677E-03
      0.445000          0.129990E-03
      0.450000          0.129261E-03
      0.455000          0.128399E-03
      0.460000          0.127330E-03
      0.465000          0.126011E-03
      0.470000          0.124429E-03
      0.475000          0.122606E-03
      0.480000          0.120590E-03
      0.485000          0.118442E-03
      0.490000          0.116227E-03
      0.495000          0.114001E-03
      0.500000          0.111805E-03
