 I_abs(s)[cm^-1]/c[mg/ml]
       0.00000          0.140103E-01
      0.500000E-02      0.139170E-01
      0.100000E-01      0.136411E-01
      0.150000E-01      0.131945E-01
      0.200000E-01      0.125959E-01
      0.250000E-01      0.118701E-01
      0.300000E-01      0.110456E-01
      0.350000E-01      0.101534E-01
      0.400000E-01      0.922482E-02
      0.450000E-01      0.828980E-02
      0.500000E-01      0.737529E-02
      0.550000E-01      0.650405E-02
      0.600000E-01      0.569382E-02
      0.650000E-01      0.495693E-02
      0.700000E-01      0.430041E-02
      0.750000E-01      0.372632E-02
      0.800000E-01      0.323255E-02
      0.850000E-01      0.281371E-02
      0.900000E-01      0.246216E-02
      0.950000E-01      0.216897E-02
      0.100000          0.192489E-02
      0.105000          0.172106E-02
      0.110000          0.154955E-02
      0.115000          0.140369E-02
      0.120000          0.127819E-02
      0.125000          0.116908E-02
      0.130000          0.107355E-02
      0.135000          0.989643E-03
      0.140000          0.916015E-03
      0.145000          0.851646E-03
      0.150000          0.795635E-03
      0.155000          0.747049E-03
      0.160000          0.704860E-03
      0.165000          0.667946E-03
      0.170000          0.635140E-03
      0.175000          0.605321E-03
      0.180000          0.577504E-03
      0.185000          0.550922E-03
      0.190000          0.525075E-03
      0.195000          0.499747E-03
      0.200000          0.474984E-03
      0.205000          0.451038E-03
      0.210000          0.428284E-03
      0.215000          0.407137E-03
      0.220000          0.387968E-03
      0.225000          0.371030E-03
      0.230000          0.356419E-03
      0.235000          0.344055E-03
      0.240000          0.333693E-03
      0.245000          0.324963E-03
      0.250000          0.317412E-03
      0.255000          0.310569E-03
      0.260000          0.303998E-03
      0.265000          0.297340E-03
      0.270000          0.290348E-03
      0.275000          0.282896E-03
      0.280000          0.274974E-03
      0.285000          0.266668E-03
      0.290000          0.258133E-03
      0.295000          0.249551E-03
      0.300000          0.241106E-03
      0.305000          0.232952E-03
      0.310000          0.225198E-03
      0.315000          0.217897E-03
      0.320000          0.211051E-03
      0.325000          0.204623E-03
      0.330000          0.198547E-03
      0.335000          0.192753E-03
      0.340000          0.187179E-03
      0.345000          0.181784E-03
      0.350000          0.176554E-03
      0.355000          0.171502E-03
      0.360000          0.166664E-03
      0.365000          0.162089E-03
      0.370000          0.157827E-03
      0.375000          0.153919E-03
      0.380000          0.150389E-03
      0.385000          0.147237E-03
      0.390000          0.144436E-03
      0.395000          0.141941E-03
      0.400000          0.139689E-03
      0.405000          0.137609E-03
      0.410000          0.135635E-03
      0.415000          0.133708E-03
      0.420000          0.131785E-03
      0.425000          0.129843E-03
      0.430000          0.127874E-03
      0.435000          0.125889E-03
      0.440000          0.123906E-03
      0.445000          0.121950E-03
      0.450000          0.120042E-03
      0.455000          0.118195E-03
      0.460000          0.116414E-03
      0.465000          0.114691E-03
      0.470000          0.113010E-03
      0.475000          0.111349E-03
      0.480000          0.109685E-03
      0.485000          0.107999E-03
      0.490000          0.106281E-03
      0.495000          0.104531E-03
      0.500000          0.102763E-03
