 I_abs(s)[cm^-1]/c[mg/ml]
       0.00000          0.144891E-01
      0.500000E-02      0.144465E-01
      0.100000E-01      0.143193E-01
      0.150000E-01      0.141098E-01
      0.200000E-01      0.138213E-01
      0.250000E-01      0.134588E-01
      0.300000E-01      0.130282E-01
      0.350000E-01      0.125364E-01
      0.400000E-01      0.119912E-01
      0.450000E-01      0.114011E-01
      0.500000E-01      0.107748E-01
      0.550000E-01      0.101215E-01
      0.600000E-01      0.945030E-02
      0.650000E-01      0.877006E-02
      0.700000E-01      0.808935E-02
      0.750000E-01      0.741621E-02
      0.800000E-01      0.675797E-02
      0.850000E-01      0.612120E-02
      0.900000E-01      0.551157E-02
      0.950000E-01      0.493381E-02
      0.100000          0.439170E-02
      0.105000          0.388801E-02
      0.110000          0.342457E-02
      0.115000          0.300231E-02
      0.120000          0.262131E-02
      0.125000          0.228090E-02
      0.130000          0.197974E-02
      0.135000          0.171596E-02
      0.140000          0.148720E-02
      0.145000          0.129080E-02
      0.150000          0.112385E-02
      0.155000          0.983328E-03
      0.160000          0.866155E-03
      0.165000          0.769306E-03
      0.170000          0.689864E-03
      0.175000          0.625083E-03
      0.180000          0.572428E-03
      0.185000          0.529608E-03
      0.190000          0.494592E-03
      0.195000          0.465621E-03
      0.200000          0.441202E-03
      0.205000          0.420099E-03
      0.210000          0.401319E-03
      0.215000          0.384087E-03
      0.220000          0.367825E-03
      0.225000          0.352123E-03
      0.230000          0.336713E-03
      0.235000          0.321443E-03
      0.240000          0.306252E-03
      0.245000          0.291147E-03
      0.250000          0.276183E-03
      0.255000          0.261445E-03
      0.260000          0.247034E-03
      0.265000          0.233059E-03
      0.270000          0.219620E-03
      0.275000          0.206811E-03
      0.280000          0.194709E-03
      0.285000          0.183376E-03
      0.290000          0.172855E-03
      0.295000          0.163173E-03
      0.300000          0.154339E-03
      0.305000          0.146349E-03
      0.310000          0.139186E-03
      0.315000          0.132822E-03
      0.320000          0.127220E-03
      0.325000          0.122338E-03
      0.330000          0.118126E-03
      0.335000          0.114536E-03
      0.340000          0.111515E-03
      0.345000          0.109009E-03
      0.350000          0.106967E-03
      0.355000          0.105338E-03
      0.360000          0.104073E-03
      0.365000          0.103126E-03
      0.370000          0.102454E-03
      0.375000          0.102016E-03
      0.380000          0.101775E-03
      0.385000          0.101697E-03
      0.390000          0.101751E-03
      0.395000          0.101908E-03
      0.400000          0.102143E-03
      0.405000          0.102433E-03
      0.410000          0.102757E-03
      0.415000          0.103096E-03
      0.420000          0.103433E-03
      0.425000          0.103753E-03
      0.430000          0.104042E-03
      0.435000          0.104286E-03
      0.440000          0.104475E-03
      0.445000          0.104597E-03
      0.450000          0.104645E-03
      0.455000          0.104611E-03
      0.460000          0.104489E-03
      0.465000          0.104275E-03
      0.470000          0.103967E-03
      0.475000          0.103563E-03
      0.480000          0.103068E-03
      0.485000          0.102482E-03
      0.490000          0.101813E-03
      0.495000          0.101068E-03
      0.500000          0.100255E-03
