 I_abs(s)[cm^-1]/c[mg/ml]
       0.00000          0.126024E-01
      0.500000E-02      0.123908E-01
      0.100000E-01      0.117899E-01
      0.150000E-01      0.108927E-01
      0.200000E-01      0.982791E-02
      0.250000E-01      0.873032E-02
      0.300000E-01      0.771175E-02
      0.350000E-01      0.684229E-02
      0.400000E-01      0.614492E-02
      0.450000E-01      0.560304E-02
      0.500000E-01      0.517626E-02
      0.550000E-01      0.481829E-02
      0.600000E-01      0.449103E-02
      0.650000E-01      0.417179E-02
      0.700000E-01      0.385341E-02
      0.750000E-01      0.353954E-02
      0.800000E-01      0.323835E-02
      0.850000E-01      0.295726E-02
      0.900000E-01      0.270041E-02
      0.950000E-01      0.246843E-02
      0.100000          0.225980E-02
      0.105000          0.207231E-02
      0.110000          0.190401E-02
      0.115000          0.175333E-02
      0.120000          0.161877E-02
      0.125000          0.149863E-02
      0.130000          0.139101E-02
      0.135000          0.129405E-02
      0.140000          0.120632E-02
      0.145000          0.112685E-02
      0.150000          0.105508E-02
      0.155000          0.990477E-03
      0.160000          0.932333E-03
      0.165000          0.879648E-03
      0.170000          0.831281E-03
      0.175000          0.786204E-03
      0.180000          0.743704E-03
      0.185000          0.703419E-03
      0.190000          0.665222E-03
      0.195000          0.629017E-03
      0.200000          0.594595E-03
      0.205000          0.561614E-03
      0.210000          0.529696E-03
      0.215000          0.498580E-03
      0.220000          0.468228E-03
      0.225000          0.438836E-03
      0.230000          0.410756E-03
      0.235000          0.384372E-03
      0.240000          0.359995E-03
      0.245000          0.337807E-03
      0.250000          0.317859E-03
      0.255000          0.300082E-03
      0.260000          0.284312E-03
      0.265000          0.270304E-03
      0.270000          0.257754E-03
      0.275000          0.246345E-03
      0.280000          0.235811E-03
      0.285000          0.225996E-03
      0.290000          0.216882E-03
      0.295000          0.208566E-03
      0.300000          0.201182E-03
      0.305000          0.194805E-03
      0.310000          0.189385E-03
      0.315000          0.184737E-03
      0.320000          0.180592E-03
      0.325000          0.176685E-03
      0.330000          0.172832E-03
      0.335000          0.168965E-03
      0.340000          0.165118E-03
      0.345000          0.161376E-03
      0.350000          0.157828E-03
      0.355000          0.154531E-03
      0.360000          0.151510E-03
      0.365000          0.148772E-03
      0.370000          0.146314E-03
      0.375000          0.144124E-03
      0.380000          0.142169E-03
      0.385000          0.140394E-03
      0.390000          0.138729E-03
      0.395000          0.137110E-03
      0.400000          0.135497E-03
      0.405000          0.133876E-03
      0.410000          0.132250E-03
      0.415000          0.130622E-03
      0.420000          0.128981E-03
      0.425000          0.127301E-03
      0.430000          0.125556E-03
      0.435000          0.123728E-03
      0.440000          0.121807E-03
      0.445000          0.119797E-03
      0.450000          0.117697E-03
      0.455000          0.115514E-03
      0.460000          0.113255E-03
      0.465000          0.110944E-03
      0.470000          0.108619E-03
      0.475000          0.106330E-03
      0.480000          0.104124E-03
      0.485000          0.102030E-03
      0.490000          0.100050E-03
      0.495000          0.981537E-04
      0.500000          0.962865E-04
