 I_abs(s)[cm^-1]/c[mg/ml]
       0.00000          0.117734E-01
      0.500000E-02      0.115300E-01
      0.100000E-01      0.108418E-01
      0.150000E-01      0.982445E-02
      0.200000E-01      0.863685E-02
      0.250000E-01      0.744250E-02
      0.300000E-01      0.637321E-02
      0.350000E-01      0.550591E-02
      0.400000E-01      0.485748E-02
      0.450000E-01      0.439635E-02
      0.500000E-01      0.406450E-02
      0.550000E-01      0.380104E-02
      0.600000E-01      0.356000E-02
      0.650000E-01      0.331806E-02
      0.700000E-01      0.307249E-02
      0.750000E-01      0.283297E-02
      0.800000E-01      0.261189E-02
      0.850000E-01      0.241726E-02
      0.900000E-01      0.225008E-02
      0.950000E-01      0.210561E-02
      0.100000          0.197676E-02
      0.105000          0.185741E-02
      0.110000          0.174409E-02
      0.115000          0.163605E-02
      0.120000          0.153405E-02
      0.125000          0.143906E-02
      0.130000          0.135156E-02
      0.135000          0.127143E-02
      0.140000          0.119838E-02
      0.145000          0.113222E-02
      0.150000          0.107288E-02
      0.155000          0.102008E-02
      0.160000          0.972924E-03
      0.165000          0.929885E-03
      0.170000          0.889048E-03
      0.175000          0.848696E-03
      0.180000          0.807864E-03
      0.185000          0.766592E-03
      0.190000          0.725759E-03
      0.195000          0.686601E-03
      0.200000          0.650138E-03
      0.205000          0.616781E-03
      0.210000          0.586256E-03
      0.215000          0.557826E-03
      0.220000          0.530663E-03
      0.225000          0.504168E-03
      0.230000          0.478137E-03
      0.235000          0.452711E-03
      0.240000          0.428211E-03
      0.245000          0.404946E-03
      0.250000          0.383085E-03
      0.255000          0.362636E-03
      0.260000          0.343502E-03
      0.265000          0.325570E-03
      0.270000          0.308782E-03
      0.275000          0.293172E-03
      0.280000          0.278843E-03
      0.285000          0.265917E-03
      0.290000          0.254470E-03
      0.295000          0.244459E-03
      0.300000          0.235691E-03
      0.305000          0.227823E-03
      0.310000          0.220416E-03
      0.315000          0.213037E-03
      0.320000          0.205368E-03
      0.325000          0.197300E-03
      0.330000          0.188967E-03
      0.335000          0.180694E-03
      0.340000          0.172891E-03
      0.345000          0.165906E-03
      0.350000          0.159912E-03
      0.355000          0.154855E-03
      0.360000          0.150484E-03
      0.365000          0.146457E-03
      0.370000          0.142462E-03
      0.375000          0.138325E-03
      0.380000          0.134049E-03
      0.385000          0.129785E-03
      0.390000          0.125741E-03
      0.395000          0.122080E-03
      0.400000          0.118854E-03
      0.405000          0.115980E-03
      0.410000          0.113293E-03
      0.415000          0.110620E-03
      0.420000          0.107856E-03
      0.425000          0.105002E-03
      0.430000          0.102151E-03
      0.435000          0.994452E-04
      0.440000          0.970050E-04
      0.445000          0.948893E-04
      0.450000          0.930777E-04
      0.455000          0.914863E-04
      0.460000          0.900017E-04
      0.465000          0.885151E-04
      0.470000          0.869474E-04
      0.475000          0.852598E-04
      0.480000          0.834526E-04
      0.485000          0.815565E-04
      0.490000          0.796195E-04
      0.495000          0.776932E-04
      0.500000          0.758207E-04
