 I_abs(s)[cm^-1]/c[mg/ml]
       0.00000          0.121917E-01
      0.500000E-02      0.119699E-01
      0.100000E-01      0.113403E-01
      0.150000E-01      0.104002E-01
      0.200000E-01      0.928554E-02
      0.250000E-01      0.813859E-02
      0.300000E-01      0.707841E-02
      0.350000E-01      0.618037E-02
      0.400000E-01      0.546993E-02
      0.450000E-01      0.493006E-02
      0.500000E-01      0.451764E-02
      0.550000E-01      0.418256E-02
      0.600000E-01      0.388314E-02
      0.650000E-01      0.359432E-02
      0.700000E-01      0.330811E-02
      0.750000E-01      0.302853E-02
      0.800000E-01      0.276442E-02
      0.850000E-01      0.252347E-02
      0.900000E-01      0.230917E-02
      0.950000E-01      0.212075E-02
      0.100000          0.195496E-02
      0.105000          0.180825E-02
      0.110000          0.167798E-02
      0.115000          0.156256E-02
      0.120000          0.146078E-02
      0.125000          0.137102E-02
      0.130000          0.129104E-02
      0.135000          0.121826E-02
      0.140000          0.115051E-02
      0.145000          0.108658E-02
      0.150000          0.102634E-02
      0.155000          0.970374E-03
      0.160000          0.919284E-03
      0.165000          0.873139E-03
      0.170000          0.831228E-03
      0.175000          0.792255E-03
      0.180000          0.754808E-03
      0.185000          0.717837E-03
      0.190000          0.680934E-03
      0.195000          0.644316E-03
      0.200000          0.608584E-03
      0.205000          0.574413E-03
      0.210000          0.542323E-03
      0.215000          0.512588E-03
      0.220000          0.485272E-03
      0.225000          0.460317E-03
      0.230000          0.437602E-03
      0.235000          0.416963E-03
      0.240000          0.398181E-03
      0.245000          0.380982E-03
      0.250000          0.365078E-03
      0.255000          0.350228E-03
      0.260000          0.336290E-03
      0.265000          0.323228E-03
      0.270000          0.311065E-03
      0.275000          0.299804E-03
      0.280000          0.289374E-03
      0.285000          0.279611E-03
      0.290000          0.270312E-03
      0.295000          0.261301E-03
      0.300000          0.252500E-03
      0.305000          0.243930E-03
      0.310000          0.235676E-03
      0.315000          0.227817E-03
      0.320000          0.220364E-03
      0.325000          0.213247E-03
      0.330000          0.206356E-03
      0.335000          0.199609E-03
      0.340000          0.193010E-03
      0.345000          0.186665E-03
      0.350000          0.180735E-03
      0.355000          0.175363E-03
      0.360000          0.170595E-03
      0.365000          0.166345E-03
      0.370000          0.162422E-03
      0.375000          0.158603E-03
      0.380000          0.154724E-03
      0.385000          0.150732E-03
      0.390000          0.146690E-03
      0.395000          0.142727E-03
      0.400000          0.138965E-03
      0.405000          0.135456E-03
      0.410000          0.132169E-03
      0.415000          0.129016E-03
      0.420000          0.125910E-03
      0.425000          0.122814E-03
      0.430000          0.119764E-03
      0.435000          0.116850E-03
      0.440000          0.114180E-03
      0.445000          0.111826E-03
      0.450000          0.109795E-03
      0.455000          0.108021E-03
      0.460000          0.106376E-03
      0.465000          0.104706E-03
      0.470000          0.102869E-03
      0.475000          0.100777E-03
      0.480000          0.984182E-04
      0.485000          0.958655E-04
      0.490000          0.932573E-04
      0.495000          0.907553E-04
      0.500000          0.884941E-04
