 I_abs(s)[cm^-1]/c[mg/ml]
       0.00000          0.132464E-01
      0.500000E-02      0.131128E-01
      0.100000E-01      0.127206E-01
      0.150000E-01      0.120937E-01
      0.200000E-01      0.112699E-01
      0.250000E-01      0.102969E-01
      0.300000E-01      0.922834E-02
      0.350000E-01      0.811895E-02
      0.400000E-01      0.702027E-02
      0.450000E-01      0.597686E-02
      0.500000E-01      0.502355E-02
      0.550000E-01      0.418393E-02
      0.600000E-01      0.347004E-02
      0.650000E-01      0.288325E-02
      0.700000E-01      0.241612E-02
      0.750000E-01      0.205470E-02
      0.800000E-01      0.178127E-02
      0.850000E-01      0.157681E-02
      0.900000E-01      0.142317E-02
      0.950000E-01      0.130468E-02
      0.100000          0.120904E-02
      0.105000          0.112762E-02
      0.110000          0.105521E-02
      0.115000          0.989364E-03
      0.120000          0.929542E-03
      0.125000          0.876258E-03
      0.130000          0.830296E-03
      0.135000          0.792165E-03
      0.140000          0.761787E-03
      0.145000          0.738423E-03
      0.150000          0.720795E-03
      0.155000          0.707315E-03
      0.160000          0.696355E-03
      0.165000          0.686494E-03
      0.170000          0.676681E-03
      0.175000          0.666305E-03
      0.180000          0.655177E-03
      0.185000          0.643426E-03
      0.190000          0.631367E-03
      0.195000          0.619358E-03
      0.200000          0.607688E-03
      0.205000          0.596505E-03
      0.210000          0.585795E-03
      0.215000          0.575410E-03
      0.220000          0.565121E-03
      0.225000          0.554686E-03
      0.230000          0.543910E-03
      0.235000          0.532683E-03
      0.240000          0.520994E-03
      0.245000          0.508918E-03
      0.250000          0.496579E-03
      0.255000          0.484112E-03
      0.260000          0.471622E-03
      0.265000          0.459156E-03
      0.270000          0.446696E-03
      0.275000          0.434164E-03
      0.280000          0.421452E-03
      0.285000          0.408450E-03
      0.290000          0.395083E-03
      0.295000          0.381329E-03
      0.300000          0.367243E-03
      0.305000          0.352944E-03
      0.310000          0.338608E-03
      0.315000          0.324437E-03
      0.320000          0.310635E-03
      0.325000          0.297382E-03
      0.330000          0.284811E-03
      0.335000          0.273006E-03
      0.340000          0.261997E-03
      0.345000          0.251776E-03
      0.350000          0.242310E-03
      0.355000          0.233557E-03
      0.360000          0.225484E-03
      0.365000          0.218069E-03
      0.370000          0.211304E-03
      0.375000          0.205190E-03
      0.380000          0.199729E-03
      0.385000          0.194907E-03
      0.390000          0.190693E-03
      0.395000          0.187028E-03
      0.400000          0.183829E-03
      0.405000          0.180995E-03
      0.410000          0.178420E-03
      0.415000          0.176000E-03
      0.420000          0.173651E-03
      0.425000          0.171313E-03
      0.430000          0.168956E-03
      0.435000          0.166576E-03
      0.440000          0.164188E-03
      0.445000          0.161816E-03
      0.450000          0.159480E-03
      0.455000          0.157188E-03
      0.460000          0.154927E-03
      0.465000          0.152666E-03
      0.470000          0.150356E-03
      0.475000          0.147937E-03
      0.480000          0.145355E-03
      0.485000          0.142563E-03
      0.490000          0.139537E-03
      0.495000          0.136278E-03
      0.500000          0.132812E-03
