 I_abs(s)[cm^-1]/c[mg/ml]
       0.00000          0.121771E-01
      0.500000E-02      0.119580E-01
      0.100000E-01      0.113371E-01
      0.150000E-01      0.104144E-01
      0.200000E-01      0.932801E-02
      0.250000E-01      0.822157E-02
      0.300000E-01      0.721261E-02
      0.350000E-01      0.637207E-02
      0.400000E-01      0.571867E-02
      0.450000E-01      0.522781E-02
      0.500000E-01      0.484988E-02
      0.550000E-01      0.453087E-02
      0.600000E-01      0.422871E-02
      0.650000E-01      0.392125E-02
      0.700000E-01      0.360571E-02
      0.750000E-01      0.329210E-02
      0.800000E-01      0.299450E-02
      0.850000E-01      0.272409E-02
      0.900000E-01      0.248563E-02
      0.950000E-01      0.227780E-02
      0.100000          0.209568E-02
      0.105000          0.193374E-02
      0.110000          0.178782E-02
      0.115000          0.165559E-02
      0.120000          0.153592E-02
      0.125000          0.142794E-02
      0.130000          0.133046E-02
      0.135000          0.124203E-02
      0.140000          0.116138E-02
      0.145000          0.108781E-02
      0.150000          0.102127E-02
      0.155000          0.961909E-03
      0.160000          0.909493E-03
      0.165000          0.862995E-03
      0.170000          0.820630E-03
      0.175000          0.780334E-03
      0.180000          0.740444E-03
      0.185000          0.700243E-03
      0.190000          0.660094E-03
      0.195000          0.621122E-03
      0.200000          0.584624E-03
      0.205000          0.551482E-03
      0.210000          0.521843E-03
      0.215000          0.495162E-03
      0.220000          0.470533E-03
      0.225000          0.447107E-03
      0.230000          0.424401E-03
      0.235000          0.402378E-03
      0.240000          0.381318E-03
      0.245000          0.361585E-03
      0.250000          0.343422E-03
      0.255000          0.326862E-03
      0.260000          0.311763E-03
      0.265000          0.297910E-03
      0.270000          0.285111E-03
      0.275000          0.273245E-03
      0.280000          0.262247E-03
      0.285000          0.252067E-03
      0.290000          0.242645E-03
      0.295000          0.233915E-03
      0.300000          0.225833E-03
      0.305000          0.218386E-03
      0.310000          0.211576E-03
      0.315000          0.205366E-03
      0.320000          0.199627E-03
      0.325000          0.194131E-03
      0.330000          0.188602E-03
      0.335000          0.182823E-03
      0.340000          0.176737E-03
      0.345000          0.170499E-03
      0.350000          0.164434E-03
      0.355000          0.158906E-03
      0.360000          0.154170E-03
      0.365000          0.150270E-03
      0.370000          0.147030E-03
      0.375000          0.144158E-03
      0.380000          0.141386E-03
      0.385000          0.138603E-03
      0.390000          0.135894E-03
      0.395000          0.133480E-03
      0.400000          0.131595E-03
      0.405000          0.130348E-03
      0.410000          0.129652E-03
      0.415000          0.129236E-03
      0.420000          0.128732E-03
      0.425000          0.127794E-03
      0.430000          0.126213E-03
      0.435000          0.123964E-03
      0.440000          0.121193E-03
      0.445000          0.118151E-03
      0.450000          0.115096E-03
      0.455000          0.112212E-03
      0.460000          0.109568E-03
      0.465000          0.107122E-03
      0.470000          0.104771E-03
      0.475000          0.102414E-03
      0.480000          0.100006E-03
      0.485000          0.975723E-04
      0.490000          0.951971E-04
      0.495000          0.929807E-04
      0.500000          0.910003E-04
