 I_abs(s)[cm^-1]/c[mg/ml]
       0.00000          0.121190E-01
      0.500000E-02      0.118879E-01
      0.100000E-01      0.112337E-01
      0.150000E-01      0.102631E-01
      0.200000E-01      0.912360E-02
      0.250000E-01      0.796772E-02
      0.300000E-01      0.691966E-02
      0.350000E-01      0.605376E-02
      0.400000E-01      0.538910E-02
      0.450000E-01      0.489951E-02
      0.500000E-01      0.453309E-02
      0.550000E-01      0.423378E-02
      0.600000E-01      0.395780E-02
      0.650000E-01      0.368139E-02
      0.700000E-01      0.339982E-02
      0.750000E-01      0.312065E-02
      0.800000E-01      0.285534E-02
      0.850000E-01      0.261281E-02
      0.900000E-01      0.239667E-02
      0.950000E-01      0.220567E-02
      0.100000          0.203614E-02
      0.105000          0.188437E-02
      0.110000          0.174789E-02
      0.115000          0.162552E-02
      0.120000          0.151650E-02
      0.125000          0.141970E-02
      0.130000          0.133335E-02
      0.135000          0.125523E-02
      0.140000          0.118335E-02
      0.145000          0.111628E-02
      0.150000          0.105329E-02
      0.155000          0.994038E-03
      0.160000          0.938188E-03
      0.165000          0.885213E-03
      0.170000          0.834434E-03
      0.175000          0.785295E-03
      0.180000          0.737633E-03
      0.185000          0.691776E-03
      0.190000          0.648378E-03
      0.195000          0.608085E-03
      0.200000          0.571210E-03
      0.205000          0.537581E-03
      0.210000          0.506627E-03
      0.215000          0.477647E-03
      0.220000          0.450113E-03
      0.225000          0.423870E-03
      0.230000          0.399149E-03
      0.235000          0.376412E-03
      0.240000          0.356116E-03
      0.245000          0.338511E-03
      0.250000          0.323533E-03
      0.255000          0.310828E-03
      0.260000          0.299856E-03
      0.265000          0.290038E-03
      0.270000          0.280865E-03
      0.275000          0.271980E-03
      0.280000          0.263191E-03
      0.285000          0.254454E-03
      0.290000          0.245832E-03
      0.295000          0.237435E-03
      0.300000          0.229370E-03
      0.305000          0.221696E-03
      0.310000          0.214408E-03
      0.315000          0.207449E-03
      0.320000          0.200753E-03
      0.325000          0.194295E-03
      0.330000          0.188116E-03
      0.335000          0.182315E-03
      0.340000          0.176998E-03
      0.345000          0.172224E-03
      0.350000          0.167956E-03
      0.355000          0.164073E-03
      0.360000          0.160417E-03
      0.365000          0.156870E-03
      0.370000          0.153403E-03
      0.375000          0.150081E-03
      0.380000          0.147011E-03
      0.385000          0.144270E-03
      0.390000          0.141844E-03
      0.395000          0.139608E-03
      0.400000          0.137358E-03
      0.405000          0.134888E-03
      0.410000          0.132061E-03
      0.415000          0.128859E-03
      0.420000          0.125396E-03
      0.425000          0.121880E-03
      0.430000          0.118555E-03
      0.435000          0.115625E-03
      0.440000          0.113202E-03
      0.445000          0.111278E-03
      0.450000          0.109733E-03
      0.455000          0.108376E-03
      0.460000          0.107003E-03
      0.465000          0.105459E-03
      0.470000          0.103680E-03
      0.475000          0.101707E-03
      0.480000          0.996687E-04
      0.485000          0.977311E-04
      0.490000          0.960394E-04
      0.495000          0.946612E-04
      0.500000          0.935566E-04
