 I_abs(s)[cm^-1]/c[mg/ml]
       0.00000          0.130274E-01
      0.500000E-02      0.128172E-01
      0.100000E-01      0.122190E-01
      0.150000E-01      0.113225E-01
      0.200000E-01      0.102521E-01
      0.250000E-01      0.913917E-02
      0.300000E-01      0.809389E-02
      0.350000E-01      0.718724E-02
      0.400000E-01      0.644507E-02
      0.450000E-01      0.585470E-02
      0.500000E-01      0.537973E-02
      0.550000E-01      0.497708E-02
      0.600000E-01      0.461075E-02
      0.650000E-01      0.425914E-02
      0.700000E-01      0.391543E-02
      0.750000E-01      0.358304E-02
      0.800000E-01      0.326948E-02
      0.850000E-01      0.298115E-02
      0.900000E-01      0.272083E-02
      0.950000E-01      0.248779E-02
      0.100000          0.227938E-02
      0.105000          0.209285E-02
      0.110000          0.192628E-02
      0.115000          0.177846E-02
      0.120000          0.164821E-02
      0.125000          0.153362E-02
      0.130000          0.143189E-02
      0.135000          0.133973E-02
      0.140000          0.125415E-02
      0.145000          0.117310E-02
      0.150000          0.109573E-02
      0.155000          0.102215E-02
      0.160000          0.952911E-03
      0.165000          0.888440E-03
      0.170000          0.828773E-03
      0.175000          0.773553E-03
      0.180000          0.722255E-03
      0.185000          0.674439E-03
      0.190000          0.629884E-03
      0.195000          0.588564E-03
      0.200000          0.550534E-03
      0.205000          0.515804E-03
      0.210000          0.484295E-03
      0.215000          0.455870E-03
      0.220000          0.430391E-03
      0.225000          0.407749E-03
      0.230000          0.387826E-03
      0.235000          0.370421E-03
      0.240000          0.355199E-03
      0.245000          0.341688E-03
      0.250000          0.329366E-03
      0.255000          0.317770E-03
      0.260000          0.306591E-03
      0.265000          0.295694E-03
      0.270000          0.285068E-03
      0.275000          0.274740E-03
      0.280000          0.264692E-03
      0.285000          0.254848E-03
      0.290000          0.245106E-03
      0.295000          0.235411E-03
      0.300000          0.225805E-03
      0.305000          0.216435E-03
      0.310000          0.207497E-03
      0.315000          0.199172E-03
      0.320000          0.191555E-03
      0.325000          0.184640E-03
      0.330000          0.178342E-03
      0.335000          0.172553E-03
      0.340000          0.167187E-03
      0.345000          0.162210E-03
      0.350000          0.157626E-03
      0.355000          0.153455E-03
      0.360000          0.149715E-03
      0.365000          0.146417E-03
      0.370000          0.143573E-03
      0.375000          0.141201E-03
      0.380000          0.139311E-03
      0.385000          0.137876E-03
      0.390000          0.136797E-03
      0.395000          0.135891E-03
      0.400000          0.134926E-03
      0.405000          0.133678E-03
      0.410000          0.132003E-03
      0.415000          0.129882E-03
      0.420000          0.127405E-03
      0.425000          0.124725E-03
      0.430000          0.121989E-03
      0.435000          0.119284E-03
      0.440000          0.116636E-03
      0.445000          0.114037E-03
      0.450000          0.111490E-03
      0.455000          0.109034E-03
      0.460000          0.106736E-03
      0.465000          0.104661E-03
      0.470000          0.102833E-03
      0.475000          0.101217E-03
      0.480000          0.997279E-04
      0.485000          0.982649E-04
      0.490000          0.967452E-04
      0.495000          0.951270E-04
      0.500000          0.934087E-04
