 I_abs(s)[cm^-1]/c[mg/ml]
       0.00000          0.141091E-01
      0.500000E-02      0.140527E-01
      0.100000E-01      0.138849E-01
      0.150000E-01      0.136102E-01
      0.200000E-01      0.132360E-01
      0.250000E-01      0.127721E-01
      0.300000E-01      0.122301E-01
      0.350000E-01      0.116236E-01
      0.400000E-01      0.109668E-01
      0.450000E-01      0.102745E-01
      0.500000E-01      0.956144E-02
      0.550000E-01      0.884154E-02
      0.600000E-01      0.812774E-02
      0.650000E-01      0.743149E-02
      0.700000E-01      0.676250E-02
      0.750000E-01      0.612853E-02
      0.800000E-01      0.553542E-02
      0.850000E-01      0.498702E-02
      0.900000E-01      0.448536E-02
      0.950000E-01      0.403085E-02
      0.100000          0.362247E-02
      0.105000          0.325810E-02
      0.110000          0.293476E-02
      0.115000          0.264894E-02
      0.120000          0.239681E-02
      0.125000          0.217447E-02
      0.130000          0.197817E-02
      0.135000          0.180439E-02
      0.140000          0.164998E-02
      0.145000          0.151218E-02
      0.150000          0.138868E-02
      0.155000          0.127753E-02
      0.160000          0.117716E-02
      0.165000          0.108630E-02
      0.170000          0.100392E-02
      0.175000          0.929169E-03
      0.180000          0.861302E-03
      0.185000          0.799669E-03
      0.190000          0.743654E-03
      0.195000          0.692670E-03
      0.200000          0.646143E-03
      0.205000          0.603514E-03
      0.210000          0.564252E-03
      0.215000          0.527861E-03
      0.220000          0.493901E-03
      0.225000          0.461990E-03
      0.230000          0.431826E-03
      0.235000          0.403181E-03
      0.240000          0.375906E-03
      0.245000          0.349924E-03
      0.250000          0.325221E-03
      0.255000          0.301828E-03
      0.260000          0.279812E-03
      0.265000          0.259254E-03
      0.270000          0.240237E-03
      0.275000          0.222830E-03
      0.280000          0.207079E-03
      0.285000          0.193000E-03
      0.290000          0.180572E-03
      0.295000          0.169739E-03
      0.300000          0.160414E-03
      0.305000          0.152478E-03
      0.310000          0.145794E-03
      0.315000          0.140208E-03
      0.320000          0.135562E-03
      0.325000          0.131697E-03
      0.330000          0.128465E-03
      0.335000          0.125728E-03
      0.340000          0.123367E-03
      0.345000          0.121280E-03
      0.350000          0.119389E-03
      0.355000          0.117633E-03
      0.360000          0.115973E-03
      0.365000          0.114385E-03
      0.370000          0.112861E-03
      0.375000          0.111404E-03
      0.380000          0.110025E-03
      0.385000          0.108744E-03
      0.390000          0.107582E-03
      0.395000          0.106564E-03
      0.400000          0.105711E-03
      0.405000          0.105045E-03
      0.410000          0.104582E-03
      0.415000          0.104336E-03
      0.420000          0.104312E-03
      0.425000          0.104511E-03
      0.430000          0.104927E-03
      0.435000          0.105546E-03
      0.440000          0.106347E-03
      0.445000          0.107301E-03
      0.450000          0.108372E-03
      0.455000          0.109520E-03
      0.460000          0.110697E-03
      0.465000          0.111851E-03
      0.470000          0.112928E-03
      0.475000          0.113873E-03
      0.480000          0.114633E-03
      0.485000          0.115157E-03
      0.490000          0.115400E-03
      0.495000          0.115325E-03
      0.500000          0.114905E-03
