 I_abs(s)[cm^-1]/c[mg/ml]
       0.00000          0.139530E-01
      0.500000E-02      0.138726E-01
      0.100000E-01      0.136341E-01
      0.150000E-01      0.132452E-01
      0.200000E-01      0.127187E-01
      0.250000E-01      0.120713E-01
      0.300000E-01      0.113233E-01
      0.350000E-01      0.104972E-01
      0.400000E-01      0.961695E-02
      0.450000E-01      0.870687E-02
      0.500000E-01      0.779048E-02
      0.550000E-01      0.688967E-02
      0.600000E-01      0.602385E-02
      0.650000E-01      0.520939E-02
      0.700000E-01      0.445916E-02
      0.750000E-01      0.378232E-02
      0.800000E-01      0.318436E-02
      0.850000E-01      0.266725E-02
      0.900000E-01      0.222980E-02
      0.950000E-01      0.186814E-02
      0.100000          0.157627E-02
      0.105000          0.134665E-02
      0.110000          0.117081E-02
      0.115000          0.103993E-02
      0.120000          0.945290E-03
      0.125000          0.878722E-03
      0.130000          0.832902E-03
      0.135000          0.801556E-03
      0.140000          0.779560E-03
      0.145000          0.762951E-03
      0.150000          0.748855E-03
      0.155000          0.735372E-03
      0.160000          0.721401E-03
      0.165000          0.706470E-03
      0.170000          0.690544E-03
      0.175000          0.673867E-03
      0.180000          0.656811E-03
      0.185000          0.639767E-03
      0.190000          0.623068E-03
      0.195000          0.606939E-03
      0.200000          0.591483E-03
      0.205000          0.576685E-03
      0.210000          0.562439E-03
      0.215000          0.548573E-03
      0.220000          0.534890E-03
      0.225000          0.521195E-03
      0.230000          0.507327E-03
      0.235000          0.493170E-03
      0.240000          0.478667E-03
      0.245000          0.463816E-03
      0.250000          0.448664E-03
      0.255000          0.433295E-03
      0.260000          0.417819E-03
      0.265000          0.402352E-03
      0.270000          0.387010E-03
      0.275000          0.371899E-03
      0.280000          0.357106E-03
      0.285000          0.342705E-03
      0.290000          0.328755E-03
      0.295000          0.315306E-03
      0.300000          0.302403E-03
      0.305000          0.290090E-03
      0.310000          0.278418E-03
      0.315000          0.267441E-03
      0.320000          0.257218E-03
      0.325000          0.247810E-03
      0.330000          0.239270E-03
      0.335000          0.231644E-03
      0.340000          0.224959E-03
      0.345000          0.219217E-03
      0.350000          0.214394E-03
      0.355000          0.210436E-03
      0.360000          0.207259E-03
      0.365000          0.204753E-03
      0.370000          0.202787E-03
      0.375000          0.201220E-03
      0.380000          0.199904E-03
      0.385000          0.198697E-03
      0.390000          0.197470E-03
      0.395000          0.196114E-03
      0.400000          0.194546E-03
      0.405000          0.192709E-03
      0.410000          0.190577E-03
      0.415000          0.188145E-03
      0.420000          0.185434E-03
      0.425000          0.182477E-03
      0.430000          0.179319E-03
      0.435000          0.176006E-03
      0.440000          0.172584E-03
      0.445000          0.169091E-03
      0.450000          0.165553E-03
      0.455000          0.161990E-03
      0.460000          0.158408E-03
      0.465000          0.154806E-03
      0.470000          0.151179E-03
      0.475000          0.147520E-03
      0.480000          0.143825E-03
      0.485000          0.140096E-03
      0.490000          0.136343E-03
      0.495000          0.132588E-03
      0.500000          0.128861E-03
