 I_abs(s)[cm^-1]/c[mg/ml]
       0.00000          0.140622E-01
      0.500000E-02      0.140057E-01
      0.100000E-01      0.138376E-01
      0.150000E-01      0.135620E-01
      0.200000E-01      0.131852E-01
      0.250000E-01      0.127162E-01
      0.300000E-01      0.121657E-01
      0.350000E-01      0.115460E-01
      0.400000E-01      0.108705E-01
      0.450000E-01      0.101532E-01
      0.500000E-01      0.940857E-02
      0.550000E-01      0.865047E-02
      0.600000E-01      0.789233E-02
      0.650000E-01      0.714648E-02
      0.700000E-01      0.642395E-02
      0.750000E-01      0.573421E-02
      0.800000E-01      0.508503E-02
      0.850000E-01      0.448238E-02
      0.900000E-01      0.393047E-02
      0.950000E-01      0.343178E-02
      0.100000          0.298720E-02
      0.105000          0.259615E-02
      0.110000          0.225686E-02
      0.115000          0.196649E-02
      0.120000          0.172143E-02
      0.125000          0.151749E-02
      0.130000          0.135014E-02
      0.135000          0.121467E-02
      0.140000          0.110639E-02
      0.145000          0.102077E-02
      0.150000          0.953534E-03
      0.155000          0.900787E-03
      0.160000          0.859037E-03
      0.165000          0.825248E-03
      0.170000          0.796851E-03
      0.175000          0.771740E-03
      0.180000          0.748249E-03
      0.185000          0.725129E-03
      0.190000          0.701501E-03
      0.195000          0.676817E-03
      0.200000          0.650816E-03
      0.205000          0.623466E-03
      0.210000          0.594927E-03
      0.215000          0.565497E-03
      0.220000          0.535569E-03
      0.225000          0.505595E-03
      0.230000          0.476044E-03
      0.235000          0.447373E-03
      0.240000          0.420000E-03
      0.245000          0.394283E-03
      0.250000          0.370504E-03
      0.255000          0.348860E-03
      0.260000          0.329458E-03
      0.265000          0.312318E-03
      0.270000          0.297378E-03
      0.275000          0.284505E-03
      0.280000          0.273506E-03
      0.285000          0.264147E-03
      0.290000          0.256165E-03
      0.295000          0.249288E-03
      0.300000          0.243247E-03
      0.305000          0.237791E-03
      0.310000          0.232699E-03
      0.315000          0.227784E-03
      0.320000          0.222903E-03
      0.325000          0.217954E-03
      0.330000          0.212877E-03
      0.335000          0.207649E-03
      0.340000          0.202281E-03
      0.345000          0.196806E-03
      0.350000          0.191278E-03
      0.355000          0.185760E-03
      0.360000          0.180316E-03
      0.365000          0.175010E-03
      0.370000          0.169894E-03
      0.375000          0.165012E-03
      0.380000          0.160393E-03
      0.385000          0.156052E-03
      0.390000          0.151992E-03
      0.395000          0.148204E-03
      0.400000          0.144670E-03
      0.405000          0.141366E-03
      0.410000          0.138265E-03
      0.415000          0.135340E-03
      0.420000          0.132564E-03
      0.425000          0.129917E-03
      0.430000          0.127381E-03
      0.435000          0.124944E-03
      0.440000          0.122602E-03
      0.445000          0.120353E-03
      0.450000          0.118201E-03
      0.455000          0.116151E-03
      0.460000          0.114211E-03
      0.465000          0.112390E-03
      0.470000          0.110695E-03
      0.475000          0.109130E-03
      0.480000          0.107699E-03
      0.485000          0.106401E-03
      0.490000          0.105233E-03
      0.495000          0.104189E-03
      0.500000          0.103258E-03
