 I_abs(s)[cm^-1]/c[mg/ml]
       0.00000          0.144317E-01
      0.500000E-02      0.143840E-01
      0.100000E-01      0.142418E-01
      0.150000E-01      0.140079E-01
      0.200000E-01      0.136869E-01
      0.250000E-01      0.132853E-01
      0.300000E-01      0.128106E-01
      0.350000E-01      0.122719E-01
      0.400000E-01      0.116790E-01
      0.450000E-01      0.110424E-01
      0.500000E-01      0.103729E-01
      0.550000E-01      0.968157E-02
      0.600000E-01      0.897893E-02
      0.650000E-01      0.827515E-02
      0.700000E-01      0.757963E-02
      0.750000E-01      0.690086E-02
      0.800000E-01      0.624625E-02
      0.850000E-01      0.562202E-02
      0.900000E-01      0.503319E-02
      0.950000E-01      0.448353E-02
      0.100000          0.397561E-02
      0.105000          0.351085E-02
      0.110000          0.308964E-02
      0.115000          0.271145E-02
      0.120000          0.237495E-02
      0.125000          0.207820E-02
      0.130000          0.181872E-02
      0.135000          0.159371E-02
      0.140000          0.140012E-02
      0.145000          0.123481E-02
      0.150000          0.109463E-02
      0.155000          0.976493E-03
      0.160000          0.877491E-03
      0.165000          0.794887E-03
      0.170000          0.726181E-03
      0.175000          0.669113E-03
      0.180000          0.621678E-03
      0.185000          0.582114E-03
      0.190000          0.548897E-03
      0.195000          0.520719E-03
      0.200000          0.496473E-03
      0.205000          0.475228E-03
      0.210000          0.456215E-03
      0.215000          0.438802E-03
      0.220000          0.422482E-03
      0.225000          0.406854E-03
      0.230000          0.391613E-03
      0.235000          0.376534E-03
      0.240000          0.361468E-03
      0.245000          0.346330E-03
      0.250000          0.331089E-03
      0.255000          0.315761E-03
      0.260000          0.300403E-03
      0.265000          0.285102E-03
      0.270000          0.269969E-03
      0.275000          0.255127E-03
      0.280000          0.240707E-03
      0.285000          0.226840E-03
      0.290000          0.213648E-03
      0.295000          0.201239E-03
      0.300000          0.189703E-03
      0.305000          0.179107E-03
      0.310000          0.169497E-03
      0.315000          0.160892E-03
      0.320000          0.153289E-03
      0.325000          0.146661E-03
      0.330000          0.140964E-03
      0.335000          0.136139E-03
      0.340000          0.132112E-03
      0.345000          0.128805E-03
      0.350000          0.126132E-03
      0.355000          0.124010E-03
      0.360000          0.122357E-03
      0.365000          0.121094E-03
      0.370000          0.120153E-03
      0.375000          0.119470E-03
      0.380000          0.118991E-03
      0.385000          0.118668E-03
      0.390000          0.118464E-03
      0.395000          0.118346E-03
      0.400000          0.118287E-03
      0.405000          0.118266E-03
      0.410000          0.118263E-03
      0.415000          0.118264E-03
      0.420000          0.118252E-03
      0.425000          0.118216E-03
      0.430000          0.118143E-03
      0.435000          0.118022E-03
      0.440000          0.117840E-03
      0.445000          0.117587E-03
      0.450000          0.117255E-03
      0.455000          0.116835E-03
      0.460000          0.116321E-03
      0.465000          0.115709E-03
      0.470000          0.114996E-03
      0.475000          0.114184E-03
      0.480000          0.113275E-03
      0.485000          0.112274E-03
      0.490000          0.111190E-03
      0.495000          0.110032E-03
      0.500000          0.108811E-03
