 I_abs(s)[cm^-1]/c[mg/ml]
       0.00000          0.138366E-01
      0.500000E-02      0.137651E-01
      0.100000E-01      0.135526E-01
      0.150000E-01      0.132052E-01
      0.200000E-01      0.127326E-01
      0.250000E-01      0.121481E-01
      0.300000E-01      0.114676E-01
      0.350000E-01      0.107093E-01
      0.400000E-01      0.989270E-02
      0.450000E-01      0.903816E-02
      0.500000E-01      0.816595E-02
      0.550000E-01      0.729557E-02
      0.600000E-01      0.644511E-02
      0.650000E-01      0.563065E-02
      0.700000E-01      0.486588E-02
      0.750000E-01      0.416173E-02
      0.800000E-01      0.352621E-02
      0.850000E-01      0.296437E-02
      0.900000E-01      0.247838E-02
      0.950000E-01      0.206775E-02
      0.100000          0.172960E-02
      0.105000          0.145909E-02
      0.110000          0.124977E-02
      0.115000          0.109412E-02
      0.120000          0.983929E-03
      0.125000          0.910766E-03
      0.130000          0.866356E-03
      0.135000          0.842914E-03
      0.140000          0.833409E-03
      0.145000          0.831761E-03
      0.150000          0.832958E-03
      0.155000          0.833105E-03
      0.160000          0.829407E-03
      0.165000          0.820103E-03
      0.170000          0.804353E-03
      0.175000          0.782092E-03
      0.180000          0.753872E-03
      0.185000          0.720693E-03
      0.190000          0.683845E-03
      0.195000          0.644753E-03
      0.200000          0.604852E-03
      0.205000          0.565481E-03
      0.210000          0.527805E-03
      0.215000          0.492763E-03
      0.220000          0.461043E-03
      0.225000          0.433076E-03
      0.230000          0.409049E-03
      0.235000          0.388937E-03
      0.240000          0.372533E-03
      0.245000          0.359499E-03
      0.250000          0.349399E-03
      0.255000          0.341749E-03
      0.260000          0.336046E-03
      0.265000          0.331802E-03
      0.270000          0.328565E-03
      0.275000          0.325937E-03
      0.280000          0.323581E-03
      0.285000          0.321225E-03
      0.290000          0.318659E-03
      0.295000          0.315734E-03
      0.300000          0.312350E-03
      0.305000          0.308454E-03
      0.310000          0.304023E-03
      0.315000          0.299064E-03
      0.320000          0.293604E-03
      0.325000          0.287682E-03
      0.330000          0.281350E-03
      0.335000          0.274666E-03
      0.340000          0.267692E-03
      0.345000          0.260495E-03
      0.350000          0.253145E-03
      0.355000          0.245712E-03
      0.360000          0.238269E-03
      0.365000          0.230889E-03
      0.370000          0.223643E-03
      0.375000          0.216600E-03
      0.380000          0.209824E-03
      0.385000          0.203376E-03
      0.390000          0.197305E-03
      0.395000          0.191653E-03
      0.400000          0.186452E-03
      0.405000          0.181721E-03
      0.410000          0.177466E-03
      0.415000          0.173680E-03
      0.420000          0.170346E-03
      0.425000          0.167433E-03
      0.430000          0.164901E-03
      0.435000          0.162701E-03
      0.440000          0.160775E-03
      0.445000          0.159062E-03
      0.450000          0.157499E-03
      0.455000          0.156018E-03
      0.460000          0.154558E-03
      0.465000          0.153056E-03
      0.470000          0.151459E-03
      0.475000          0.149717E-03
      0.480000          0.147791E-03
      0.485000          0.145649E-03
      0.490000          0.143272E-03
      0.495000          0.140649E-03
      0.500000          0.137780E-03
