 I_abs(s)[cm^-1]/c[mg/ml]
       0.00000          0.138598E-01
      0.500000E-02      0.137626E-01
      0.100000E-01      0.134751E-01
      0.150000E-01      0.130089E-01
      0.200000E-01      0.123828E-01
      0.250000E-01      0.116215E-01
      0.300000E-01      0.107540E-01
      0.350000E-01      0.981204E-02
      0.400000E-01      0.882834E-02
      0.450000E-01      0.783467E-02
      0.500000E-01      0.686040E-02
      0.550000E-01      0.593114E-02
      0.600000E-01      0.506769E-02
      0.650000E-01      0.428549E-02
      0.700000E-01      0.359438E-02
      0.750000E-01      0.299875E-02
      0.800000E-01      0.249806E-02
      0.850000E-01      0.208761E-02
      0.900000E-01      0.175945E-02
      0.950000E-01      0.150342E-02
      0.100000          0.130817E-02
      0.105000          0.116210E-02
      0.110000          0.105416E-02
      0.115000          0.974457E-03
      0.120000          0.914642E-03
      0.125000          0.868134E-03
      0.130000          0.830111E-03
      0.135000          0.797370E-03
      0.140000          0.768058E-03
      0.145000          0.741358E-03
      0.150000          0.717134E-03
      0.155000          0.695609E-03
      0.160000          0.677088E-03
      0.165000          0.661753E-03
      0.170000          0.649541E-03
      0.175000          0.640093E-03
      0.180000          0.632783E-03
      0.185000          0.626784E-03
      0.190000          0.621176E-03
      0.195000          0.615063E-03
      0.200000          0.607675E-03
      0.205000          0.598457E-03
      0.210000          0.587119E-03
      0.215000          0.573648E-03
      0.220000          0.558293E-03
      0.225000          0.541512E-03
      0.230000          0.523902E-03
      0.235000          0.506118E-03
      0.240000          0.488797E-03
      0.245000          0.472482E-03
      0.250000          0.457575E-03
      0.255000          0.444302E-03
      0.260000          0.432710E-03
      0.265000          0.422674E-03
      0.270000          0.413933E-03
      0.275000          0.406133E-03
      0.280000          0.398871E-03
      0.285000          0.391750E-03
      0.290000          0.384414E-03
      0.295000          0.376585E-03
      0.300000          0.368081E-03
      0.305000          0.358823E-03
      0.310000          0.348827E-03
      0.315000          0.338190E-03
      0.320000          0.327070E-03
      0.325000          0.315654E-03
      0.330000          0.304140E-03
      0.335000          0.292708E-03
      0.340000          0.281512E-03
      0.345000          0.270661E-03
      0.350000          0.260224E-03
      0.355000          0.250231E-03
      0.360000          0.240683E-03
      0.365000          0.231563E-03
      0.370000          0.222848E-03
      0.375000          0.214526E-03
      0.380000          0.206600E-03
      0.385000          0.199093E-03
      0.390000          0.192054E-03
      0.395000          0.185548E-03
      0.400000          0.179652E-03
      0.405000          0.174445E-03
      0.410000          0.169991E-03
      0.415000          0.166336E-03
      0.420000          0.163493E-03
      0.425000          0.161436E-03
      0.430000          0.160097E-03
      0.435000          0.159372E-03
      0.440000          0.159118E-03
      0.445000          0.159168E-03
      0.450000          0.159343E-03
      0.455000          0.159460E-03
      0.460000          0.159348E-03
      0.465000          0.158860E-03
      0.470000          0.157882E-03
      0.475000          0.156339E-03
      0.480000          0.154202E-03
      0.485000          0.151483E-03
      0.490000          0.148235E-03
      0.495000          0.144544E-03
      0.500000          0.140521E-03
