 I_abs(s)[cm^-1]/c[mg/ml]
       0.00000          0.144159E-01
      0.500000E-02      0.143447E-01
      0.100000E-01      0.141334E-01
      0.150000E-01      0.137893E-01
      0.200000E-01      0.133239E-01
      0.250000E-01      0.127523E-01
      0.300000E-01      0.120926E-01
      0.350000E-01      0.113645E-01
      0.400000E-01      0.105889E-01
      0.450000E-01      0.978623E-02
      0.500000E-01      0.897593E-02
      0.550000E-01      0.817554E-02
      0.600000E-01      0.740011E-02
      0.650000E-01      0.666177E-02
      0.700000E-01      0.596959E-02
      0.750000E-01      0.532957E-02
      0.800000E-01      0.474489E-02
      0.850000E-01      0.421619E-02
      0.900000E-01      0.374206E-02
      0.950000E-01      0.331956E-02
      0.100000          0.294468E-02
      0.105000          0.261284E-02
      0.110000          0.231931E-02
      0.115000          0.205954E-02
      0.120000          0.182936E-02
      0.125000          0.162517E-02
      0.130000          0.144398E-02
      0.135000          0.128336E-02
      0.140000          0.114141E-02
      0.145000          0.101663E-02
      0.150000          0.907827E-03
      0.155000          0.813952E-03
      0.160000          0.734040E-03
      0.165000          0.667114E-03
      0.170000          0.612127E-03
      0.175000          0.567942E-03
      0.180000          0.533327E-03
      0.185000          0.506969E-03
      0.190000          0.487504E-03
      0.195000          0.473556E-03
      0.200000          0.463778E-03
      0.205000          0.456886E-03
      0.210000          0.451699E-03
      0.215000          0.447166E-03
      0.220000          0.442388E-03
      0.225000          0.436638E-03
      0.230000          0.429366E-03
      0.235000          0.420207E-03
      0.240000          0.408974E-03
      0.245000          0.395655E-03
      0.250000          0.380389E-03
      0.255000          0.363455E-03
      0.260000          0.345236E-03
      0.265000          0.326194E-03
      0.270000          0.306833E-03
      0.275000          0.287663E-03
      0.280000          0.269165E-03
      0.285000          0.251760E-03
      0.290000          0.235785E-03
      0.295000          0.221472E-03
      0.300000          0.208944E-03
      0.305000          0.198210E-03
      0.310000          0.189182E-03
      0.315000          0.181688E-03
      0.320000          0.175499E-03
      0.325000          0.170354E-03
      0.330000          0.165989E-03
      0.335000          0.162161E-03
      0.340000          0.158667E-03
      0.345000          0.155360E-03
      0.350000          0.152153E-03
      0.355000          0.149020E-03
      0.360000          0.145982E-03
      0.365000          0.143104E-03
      0.370000          0.140466E-03
      0.375000          0.138157E-03
      0.380000          0.136250E-03
      0.385000          0.134795E-03
      0.390000          0.133804E-03
      0.395000          0.133253E-03
      0.400000          0.133078E-03
      0.405000          0.133184E-03
      0.410000          0.133453E-03
      0.415000          0.133755E-03
      0.420000          0.133964E-03
      0.425000          0.133963E-03
      0.430000          0.133662E-03
      0.435000          0.132997E-03
      0.440000          0.131938E-03
      0.445000          0.130487E-03
      0.450000          0.128676E-03
      0.455000          0.126559E-03
      0.460000          0.124206E-03
      0.465000          0.121693E-03
      0.470000          0.119096E-03
      0.475000          0.116481E-03
      0.480000          0.113902E-03
      0.485000          0.111397E-03
      0.490000          0.108983E-03
      0.495000          0.106665E-03
      0.500000          0.104430E-03
