 I_abs(s)[cm^-1]/c[mg/ml]
       0.00000          0.136358E-01
      0.500000E-02      0.135449E-01
      0.100000E-01      0.132761E-01
      0.150000E-01      0.128415E-01
      0.200000E-01      0.122602E-01
      0.250000E-01      0.115573E-01
      0.300000E-01      0.107619E-01
      0.350000E-01      0.990517E-02
      0.400000E-01      0.901891E-02
      0.450000E-01      0.813312E-02
      0.500000E-01      0.727463E-02
      0.550000E-01      0.646571E-02
      0.600000E-01      0.572322E-02
      0.650000E-01      0.505820E-02
      0.700000E-01      0.447586E-02
      0.750000E-01      0.397612E-02
      0.800000E-01      0.355438E-02
      0.850000E-01      0.320257E-02
      0.900000E-01      0.291032E-02
      0.950000E-01      0.266620E-02
      0.100000          0.245875E-02
      0.105000          0.227750E-02
      0.110000          0.211361E-02
      0.115000          0.196030E-02
      0.120000          0.181304E-02
      0.125000          0.166945E-02
      0.130000          0.152903E-02
      0.135000          0.139273E-02
      0.140000          0.126242E-02
      0.145000          0.114044E-02
      0.150000          0.102908E-02
      0.155000          0.930225E-03
      0.160000          0.845062E-03
      0.165000          0.773968E-03
      0.170000          0.716479E-03
      0.175000          0.671380E-03
      0.180000          0.636875E-03
      0.185000          0.610801E-03
      0.190000          0.590860E-03
      0.195000          0.574835E-03
      0.200000          0.560773E-03
      0.205000          0.547109E-03
      0.210000          0.532738E-03
      0.215000          0.517025E-03
      0.220000          0.499759E-03
      0.225000          0.481082E-03
      0.230000          0.461381E-03
      0.235000          0.441181E-03
      0.240000          0.421039E-03
      0.245000          0.401461E-03
      0.250000          0.382837E-03
      0.255000          0.365407E-03
      0.260000          0.349256E-03
      0.265000          0.334324E-03
      0.270000          0.320442E-03
      0.275000          0.307370E-03
      0.280000          0.294847E-03
      0.285000          0.282625E-03
      0.290000          0.270509E-03
      0.295000          0.258375E-03
      0.300000          0.246179E-03
      0.305000          0.233962E-03
      0.310000          0.221833E-03
      0.315000          0.209950E-03
      0.320000          0.198507E-03
      0.325000          0.187701E-03
      0.330000          0.177715E-03
      0.335000          0.168704E-03
      0.340000          0.160776E-03
      0.345000          0.153990E-03
      0.350000          0.148348E-03
      0.355000          0.143803E-03
      0.360000          0.140262E-03
      0.365000          0.137597E-03
      0.370000          0.135651E-03
      0.375000          0.134253E-03
      0.380000          0.133228E-03
      0.385000          0.132406E-03
      0.390000          0.131633E-03
      0.395000          0.130775E-03
      0.400000          0.129727E-03
      0.405000          0.128414E-03
      0.410000          0.126794E-03
      0.415000          0.124857E-03
      0.420000          0.122622E-03
      0.425000          0.120135E-03
      0.430000          0.117461E-03
      0.435000          0.114677E-03
      0.440000          0.111869E-03
      0.445000          0.109118E-03
      0.450000          0.106500E-03
      0.455000          0.104075E-03
      0.460000          0.101885E-03
      0.465000          0.999530E-04
      0.470000          0.982784E-04
      0.475000          0.968426E-04
      0.480000          0.956104E-04
      0.485000          0.945352E-04
      0.490000          0.935647E-04
      0.495000          0.926465E-04
      0.500000          0.917341E-04
