 I_abs(s)[cm^-1]/c[mg/ml]
       0.00000          0.138366E-01
      0.500000E-02      0.137408E-01
      0.100000E-01      0.134573E-01
      0.150000E-01      0.129975E-01
      0.200000E-01      0.123798E-01
      0.250000E-01      0.116282E-01
      0.300000E-01      0.107712E-01
      0.350000E-01      0.983987E-02
      0.400000E-01      0.886640E-02
      0.450000E-01      0.788221E-02
      0.500000E-01      0.691647E-02
      0.550000E-01      0.599473E-02
      0.600000E-01      0.513792E-02
      0.650000E-01      0.436170E-02
      0.700000E-01      0.367622E-02
      0.750000E-01      0.308618E-02
      0.800000E-01      0.259132E-02
      0.850000E-01      0.218708E-02
      0.900000E-01      0.186555E-02
      0.950000E-01      0.161645E-02
      0.100000          0.142813E-02
      0.105000          0.128859E-02
      0.110000          0.118629E-02
      0.115000          0.111079E-02
      0.120000          0.105328E-02
      0.125000          0.100677E-02
      0.130000          0.966209E-03
      0.135000          0.928310E-03
      0.140000          0.891346E-03
      0.145000          0.854805E-03
      0.150000          0.819009E-03
      0.155000          0.784749E-03
      0.160000          0.752945E-03
      0.165000          0.724383E-03
      0.170000          0.699528E-03
      0.175000          0.678426E-03
      0.180000          0.660694E-03
      0.185000          0.645575E-03
      0.190000          0.632051E-03
      0.195000          0.618976E-03
      0.200000          0.605230E-03
      0.205000          0.589850E-03
      0.210000          0.572142E-03
      0.215000          0.551751E-03
      0.220000          0.528683E-03
      0.225000          0.503294E-03
      0.230000          0.476236E-03
      0.235000          0.448371E-03
      0.240000          0.420676E-03
      0.245000          0.394138E-03
      0.250000          0.369653E-03
      0.255000          0.347951E-03
      0.260000          0.329528E-03
      0.265000          0.314622E-03
      0.270000          0.303207E-03
      0.275000          0.295011E-03
      0.280000          0.289562E-03
      0.285000          0.286249E-03
      0.290000          0.284382E-03
      0.295000          0.283261E-03
      0.300000          0.282243E-03
      0.305000          0.280783E-03
      0.310000          0.278479E-03
      0.315000          0.275086E-03
      0.320000          0.270521E-03
      0.325000          0.264850E-03
      0.330000          0.258263E-03
      0.335000          0.251039E-03
      0.340000          0.243511E-03
      0.345000          0.236021E-03
      0.350000          0.228889E-03
      0.355000          0.222379E-03
      0.360000          0.216679E-03
      0.365000          0.211888E-03
      0.370000          0.208015E-03
      0.375000          0.204983E-03
      0.380000          0.202645E-03
      0.385000          0.200807E-03
      0.390000          0.199242E-03
      0.395000          0.197723E-03
      0.400000          0.196038E-03
      0.405000          0.194014E-03
      0.410000          0.191524E-03
      0.415000          0.188501E-03
      0.420000          0.184937E-03
      0.425000          0.180878E-03
      0.430000          0.176416E-03
      0.435000          0.171679E-03
      0.440000          0.166812E-03
      0.445000          0.161967E-03
      0.450000          0.157286E-03
      0.455000          0.152888E-03
      0.460000          0.148862E-03
      0.465000          0.145264E-03
      0.470000          0.142108E-03
      0.475000          0.139376E-03
      0.480000          0.137021E-03
      0.485000          0.134969E-03
      0.490000          0.133138E-03
      0.495000          0.131440E-03
      0.500000          0.129790E-03
