 I_abs(s)[cm^-1]/c[mg/ml]
       0.00000          0.132236E-01
      0.500000E-02      0.130918E-01
      0.100000E-01      0.127044E-01
      0.150000E-01      0.120855E-01
      0.200000E-01      0.112721E-01
      0.250000E-01      0.103117E-01
      0.300000E-01      0.925711E-02
      0.350000E-01      0.816255E-02
      0.400000E-01      0.707897E-02
      0.450000E-01      0.605040E-02
      0.500000E-01      0.511118E-02
      0.550000E-01      0.428443E-02
      0.600000E-01      0.358176E-02
      0.650000E-01      0.300413E-02
      0.700000E-01      0.254367E-02
      0.750000E-01      0.218608E-02
      0.800000E-01      0.191328E-02
      0.850000E-01      0.170603E-02
      0.900000E-01      0.154608E-02
      0.950000E-01      0.141787E-02
      0.100000          0.130940E-02
      0.105000          0.121259E-02
      0.110000          0.112299E-02
      0.115000          0.103904E-02
      0.120000          0.961208E-03
      0.125000          0.890991E-03
      0.130000          0.830056E-03
      0.135000          0.779602E-03
      0.140000          0.739990E-03
      0.145000          0.710629E-03
      0.150000          0.690101E-03
      0.155000          0.676423E-03
      0.160000          0.667381E-03
      0.165000          0.660863E-03
      0.170000          0.655105E-03
      0.175000          0.648854E-03
      0.180000          0.641403E-03
      0.185000          0.632539E-03
      0.190000          0.622422E-03
      0.195000          0.611431E-03
      0.200000          0.600015E-03
      0.205000          0.588574E-03
      0.210000          0.577388E-03
      0.215000          0.566594E-03
      0.220000          0.556196E-03
      0.225000          0.546115E-03
      0.230000          0.536234E-03
      0.235000          0.526443E-03
      0.240000          0.516670E-03
      0.245000          0.506888E-03
      0.250000          0.497102E-03
      0.255000          0.487329E-03
      0.260000          0.477571E-03
      0.265000          0.467794E-03
      0.270000          0.457918E-03
      0.275000          0.447820E-03
      0.280000          0.437353E-03
      0.285000          0.426367E-03
      0.290000          0.414743E-03
      0.295000          0.402409E-03
      0.300000          0.389366E-03
      0.305000          0.375685E-03
      0.310000          0.361503E-03
      0.315000          0.347008E-03
      0.320000          0.332415E-03
      0.325000          0.317944E-03
      0.330000          0.303799E-03
      0.335000          0.290157E-03
      0.340000          0.277152E-03
      0.345000          0.264885E-03
      0.350000          0.253419E-03
      0.355000          0.242791E-03
      0.360000          0.233018E-03
      0.365000          0.224098E-03
      0.370000          0.216019E-03
      0.375000          0.208755E-03
      0.380000          0.202262E-03
      0.385000          0.196484E-03
      0.390000          0.191343E-03
      0.395000          0.186753E-03
      0.400000          0.182615E-03
      0.405000          0.178835E-03
      0.410000          0.175327E-03
      0.415000          0.172026E-03
      0.420000          0.168891E-03
      0.425000          0.165910E-03
      0.430000          0.163098E-03
      0.435000          0.160484E-03
      0.440000          0.158106E-03
      0.445000          0.155993E-03
      0.450000          0.154157E-03
      0.455000          0.152577E-03
      0.460000          0.151204E-03
      0.465000          0.149952E-03
      0.470000          0.148712E-03
      0.475000          0.147362E-03
      0.480000          0.145779E-03
      0.485000          0.143857E-03
      0.490000          0.141523E-03
      0.495000          0.138741E-03
      0.500000          0.135518E-03
