 I_abs(s)[cm^-1]/c[mg/ml]
       0.00000          0.137979E-01
      0.500000E-02      0.137174E-01
      0.100000E-01      0.134792E-01
      0.150000E-01      0.130930E-01
      0.200000E-01      0.125741E-01
      0.250000E-01      0.119426E-01
      0.300000E-01      0.112217E-01
      0.350000E-01      0.104368E-01
      0.400000E-01      0.961321E-02
      0.450000E-01      0.877552E-02
      0.500000E-01      0.794581E-02
      0.550000E-01      0.714302E-02
      0.600000E-01      0.638223E-02
      0.650000E-01      0.567446E-02
      0.700000E-01      0.502671E-02
      0.750000E-01      0.444232E-02
      0.800000E-01      0.392152E-02
      0.850000E-01      0.346206E-02
      0.900000E-01      0.305996E-02
      0.950000E-01      0.271014E-02
      0.100000          0.240703E-02
      0.105000          0.214505E-02
      0.110000          0.191891E-02
      0.115000          0.172384E-02
      0.120000          0.155564E-02
      0.125000          0.141069E-02
      0.130000          0.128588E-02
      0.135000          0.117853E-02
      0.140000          0.108626E-02
      0.145000          0.100699E-02
      0.150000          0.938804E-03
      0.155000          0.879974E-03
      0.160000          0.828936E-03
      0.165000          0.784303E-03
      0.170000          0.744867E-03
      0.175000          0.709610E-03
      0.180000          0.677695E-03
      0.185000          0.648452E-03
      0.190000          0.621351E-03
      0.195000          0.595973E-03
      0.200000          0.571976E-03
      0.205000          0.549075E-03
      0.210000          0.527019E-03
      0.215000          0.505588E-03
      0.220000          0.484595E-03
      0.225000          0.463891E-03
      0.230000          0.443385E-03
      0.235000          0.423042E-03
      0.240000          0.402897E-03
      0.245000          0.383046E-03
      0.250000          0.363637E-03
      0.255000          0.344846E-03
      0.260000          0.326858E-03
      0.265000          0.309843E-03
      0.270000          0.293930E-03
      0.275000          0.279201E-03
      0.280000          0.265677E-03
      0.285000          0.253329E-03
      0.290000          0.242083E-03
      0.295000          0.231840E-03
      0.300000          0.222492E-03
      0.305000          0.213939E-03
      0.310000          0.206103E-03
      0.315000          0.198934E-03
      0.320000          0.192410E-03
      0.325000          0.186531E-03
      0.330000          0.181307E-03
      0.335000          0.176747E-03
      0.340000          0.172849E-03
      0.345000          0.169589E-03
      0.350000          0.166918E-03
      0.355000          0.164765E-03
      0.360000          0.163039E-03
      0.365000          0.161643E-03
      0.370000          0.160481E-03
      0.375000          0.159469E-03
      0.380000          0.158544E-03
      0.385000          0.157662E-03
      0.390000          0.156805E-03
      0.395000          0.155967E-03
      0.400000          0.155155E-03
      0.405000          0.154374E-03
      0.410000          0.153621E-03
      0.415000          0.152882E-03
      0.420000          0.152123E-03
      0.425000          0.151298E-03
      0.430000          0.150352E-03
      0.435000          0.149226E-03
      0.440000          0.147871E-03
      0.445000          0.146250E-03
      0.450000          0.144352E-03
      0.455000          0.142188E-03
      0.460000          0.139795E-03
      0.465000          0.137229E-03
      0.470000          0.134561E-03
      0.475000          0.131861E-03
      0.480000          0.129197E-03
      0.485000          0.126619E-03
      0.490000          0.124157E-03
      0.495000          0.121817E-03
      0.500000          0.119583E-03
