 I_abs(s)[cm^-1]/c[mg/ml]
       0.00000          0.143527E-01
      0.500000E-02      0.143047E-01
      0.100000E-01      0.141616E-01
      0.150000E-01      0.139262E-01
      0.200000E-01      0.136034E-01
      0.250000E-01      0.131994E-01
      0.300000E-01      0.127221E-01
      0.350000E-01      0.121806E-01
      0.400000E-01      0.115849E-01
      0.450000E-01      0.109457E-01
      0.500000E-01      0.102743E-01
      0.550000E-01      0.958161E-02
      0.600000E-01      0.887873E-02
      0.650000E-01      0.817605E-02
      0.700000E-01      0.748328E-02
      0.750000E-01      0.680914E-02
      0.800000E-01      0.616125E-02
      0.850000E-01      0.554598E-02
      0.900000E-01      0.496839E-02
      0.950000E-01      0.443219E-02
      0.100000          0.393981E-02
      0.105000          0.349238E-02
      0.110000          0.308991E-02
      0.115000          0.273139E-02
      0.120000          0.241492E-02
      0.125000          0.213789E-02
      0.130000          0.189717E-02
      0.135000          0.168926E-02
      0.140000          0.151045E-02
      0.145000          0.135701E-02
      0.150000          0.122526E-02
      0.155000          0.111175E-02
      0.160000          0.101331E-02
      0.165000          0.927103E-03
      0.170000          0.850711E-03
      0.175000          0.782109E-03
      0.180000          0.719683E-03
      0.185000          0.662202E-03
      0.190000          0.608784E-03
      0.195000          0.558850E-03
      0.200000          0.512066E-03
      0.205000          0.468296E-03
      0.210000          0.427537E-03
      0.215000          0.389871E-03
      0.220000          0.355418E-03
      0.225000          0.324291E-03
      0.230000          0.296571E-03
      0.235000          0.272281E-03
      0.240000          0.251370E-03
      0.245000          0.233713E-03
      0.250000          0.219106E-03
      0.255000          0.207282E-03
      0.260000          0.197918E-03
      0.265000          0.190652E-03
      0.270000          0.185102E-03
      0.275000          0.180885E-03
      0.280000          0.177630E-03
      0.285000          0.174997E-03
      0.290000          0.172688E-03
      0.295000          0.170454E-03
      0.300000          0.168104E-03
      0.305000          0.165501E-03
      0.310000          0.162570E-03
      0.315000          0.159283E-03
      0.320000          0.155662E-03
      0.325000          0.151763E-03
      0.330000          0.147673E-03
      0.335000          0.143495E-03
      0.340000          0.139342E-03
      0.345000          0.135326E-03
      0.350000          0.131550E-03
      0.355000          0.128103E-03
      0.360000          0.125055E-03
      0.365000          0.122452E-03
      0.370000          0.120316E-03
      0.375000          0.118645E-03
      0.380000          0.117414E-03
      0.385000          0.116580E-03
      0.390000          0.116079E-03
      0.395000          0.115839E-03
      0.400000          0.115779E-03
      0.405000          0.115814E-03
      0.410000          0.115860E-03
      0.415000          0.115838E-03
      0.420000          0.115679E-03
      0.425000          0.115323E-03
      0.430000          0.114724E-03
      0.435000          0.113851E-03
      0.440000          0.112687E-03
      0.445000          0.111229E-03
      0.450000          0.109489E-03
      0.455000          0.107491E-03
      0.460000          0.105269E-03
      0.465000          0.102868E-03
      0.470000          0.100336E-03
      0.475000          0.977273E-04
      0.480000          0.950964E-04
      0.485000          0.924978E-04
      0.490000          0.899834E-04
      0.495000          0.876004E-04
      0.500000          0.853901E-04
