 I_abs(s)[cm^-1]/c[mg/ml]
       0.00000          0.142582E-01
      0.500000E-02      0.142122E-01
      0.100000E-01      0.140752E-01
      0.150000E-01      0.138498E-01
      0.200000E-01      0.135401E-01
      0.250000E-01      0.131519E-01
      0.300000E-01      0.126923E-01
      0.350000E-01      0.121695E-01
      0.400000E-01      0.115925E-01
      0.450000E-01      0.109713E-01
      0.500000E-01      0.103159E-01
      0.550000E-01      0.963675E-02
      0.600000E-01      0.894398E-02
      0.650000E-01      0.824745E-02
      0.700000E-01      0.755641E-02
      0.750000E-01      0.687933E-02
      0.800000E-01      0.622379E-02
      0.850000E-01      0.559629E-02
      0.900000E-01      0.500223E-02
      0.950000E-01      0.444584E-02
      0.100000          0.393021E-02
      0.105000          0.345729E-02
      0.110000          0.302797E-02
      0.115000          0.264218E-02
      0.120000          0.229899E-02
      0.125000          0.199673E-02
      0.130000          0.173314E-02
      0.135000          0.150552E-02
      0.140000          0.131080E-02
      0.145000          0.114576E-02
      0.150000          0.100707E-02
      0.155000          0.891449E-03
      0.160000          0.795699E-03
      0.165000          0.716825E-03
      0.170000          0.652060E-03
      0.175000          0.598909E-03
      0.180000          0.555170E-03
      0.185000          0.518939E-03
      0.190000          0.488606E-03
      0.195000          0.462839E-03
      0.200000          0.440562E-03
      0.205000          0.420927E-03
      0.210000          0.403285E-03
      0.215000          0.387153E-03
      0.220000          0.372184E-03
      0.225000          0.358139E-03
      0.230000          0.344859E-03
      0.235000          0.332242E-03
      0.240000          0.320230E-03
      0.245000          0.308785E-03
      0.250000          0.297887E-03
      0.255000          0.287520E-03
      0.260000          0.277666E-03
      0.265000          0.268309E-03
      0.270000          0.259428E-03
      0.275000          0.250997E-03
      0.280000          0.242989E-03
      0.285000          0.235377E-03
      0.290000          0.228131E-03
      0.295000          0.221227E-03
      0.300000          0.214639E-03
      0.305000          0.208346E-03
      0.310000          0.202330E-03
      0.315000          0.196576E-03
      0.320000          0.191071E-03
      0.325000          0.185804E-03
      0.330000          0.180766E-03
      0.335000          0.175950E-03
      0.340000          0.171348E-03
      0.345000          0.166952E-03
      0.350000          0.162757E-03
      0.355000          0.158754E-03
      0.360000          0.154936E-03
      0.365000          0.151297E-03
      0.370000          0.147830E-03
      0.375000          0.144531E-03
      0.380000          0.141394E-03
      0.385000          0.138416E-03
      0.390000          0.135595E-03
      0.395000          0.132930E-03
      0.400000          0.130421E-03
      0.405000          0.128068E-03
      0.410000          0.125872E-03
      0.415000          0.123833E-03
      0.420000          0.121951E-03
      0.425000          0.120224E-03
      0.430000          0.118648E-03
      0.435000          0.117218E-03
      0.440000          0.115926E-03
      0.445000          0.114762E-03
      0.450000          0.113711E-03
      0.455000          0.112759E-03
      0.460000          0.111888E-03
      0.465000          0.111079E-03
      0.470000          0.110309E-03
      0.475000          0.109558E-03
      0.480000          0.108805E-03
      0.485000          0.108029E-03
      0.490000          0.107209E-03
      0.495000          0.106331E-03
      0.500000          0.105377E-03
