 I_abs(s)[cm^-1]/c[mg/ml]
       0.00000          0.140388E-01
      0.500000E-02      0.139543E-01
      0.100000E-01      0.137040E-01
      0.150000E-01      0.132964E-01
      0.200000E-01      0.127458E-01
      0.250000E-01      0.120706E-01
      0.300000E-01      0.112930E-01
      0.350000E-01      0.104376E-01
      0.400000E-01      0.953014E-02
      0.450000E-01      0.859644E-02
      0.500000E-01      0.766110E-02
      0.550000E-01      0.674658E-02
      0.600000E-01      0.587237E-02
      0.650000E-01      0.505443E-02
      0.700000E-01      0.430485E-02
      0.750000E-01      0.363177E-02
      0.800000E-01      0.303952E-02
      0.850000E-01      0.252896E-02
      0.900000E-01      0.209794E-02
      0.950000E-01      0.174190E-02
      0.100000          0.145448E-02
      0.105000          0.122814E-02
      0.110000          0.105472E-02
      0.115000          0.925974E-03
      0.120000          0.833932E-03
      0.125000          0.771237E-03
      0.130000          0.731321E-03
      0.135000          0.708509E-03
      0.140000          0.698033E-03
      0.145000          0.695990E-03
      0.150000          0.699250E-03
      0.155000          0.705351E-03
      0.160000          0.712379E-03
      0.165000          0.718859E-03
      0.170000          0.723664E-03
      0.175000          0.725940E-03
      0.180000          0.725054E-03
      0.185000          0.720564E-03
      0.190000          0.712199E-03
      0.195000          0.699851E-03
      0.200000          0.683570E-03
      0.205000          0.663558E-03
      0.210000          0.640163E-03
      0.215000          0.613859E-03
      0.220000          0.585229E-03
      0.225000          0.554937E-03
      0.230000          0.523693E-03
      0.235000          0.492226E-03
      0.240000          0.461246E-03
      0.245000          0.431417E-03
      0.250000          0.403331E-03
      0.255000          0.377488E-03
      0.260000          0.354279E-03
      0.265000          0.333983E-03
      0.270000          0.316759E-03
      0.275000          0.302654E-03
      0.280000          0.291605E-03
      0.285000          0.283452E-03
      0.290000          0.277948E-03
      0.295000          0.274777E-03
      0.300000          0.273569E-03
      0.305000          0.273912E-03
      0.310000          0.275376E-03
      0.315000          0.277526E-03
      0.320000          0.279937E-03
      0.325000          0.282214E-03
      0.330000          0.284001E-03
      0.335000          0.284998E-03
      0.340000          0.284962E-03
      0.345000          0.283720E-03
      0.350000          0.281171E-03
      0.355000          0.277279E-03
      0.360000          0.272077E-03
      0.365000          0.265656E-03
      0.370000          0.258156E-03
      0.375000          0.249756E-03
      0.380000          0.240664E-03
      0.385000          0.231101E-03
      0.390000          0.221292E-03
      0.395000          0.211456E-03
      0.400000          0.201795E-03
      0.405000          0.192488E-03
      0.410000          0.183686E-03
      0.415000          0.175508E-03
      0.420000          0.168038E-03
      0.425000          0.161331E-03
      0.430000          0.155409E-03
      0.435000          0.150267E-03
      0.440000          0.145877E-03
      0.445000          0.142191E-03
      0.450000          0.139147E-03
      0.455000          0.136672E-03
      0.460000          0.134688E-03
      0.465000          0.133112E-03
      0.470000          0.131865E-03
      0.475000          0.130868E-03
      0.480000          0.130047E-03
      0.485000          0.129336E-03
      0.490000          0.128672E-03
      0.495000          0.128000E-03
      0.500000          0.127273E-03
