 I_abs(s)[cm^-1]/c[mg/ml]
       0.00000          0.138598E-01
      0.500000E-02      0.138036E-01
      0.100000E-01      0.136362E-01
      0.150000E-01      0.133615E-01
      0.200000E-01      0.129856E-01
      0.250000E-01      0.125169E-01
      0.300000E-01      0.119658E-01
      0.350000E-01      0.113440E-01
      0.400000E-01      0.106648E-01
      0.450000E-01      0.994192E-02
      0.500000E-01      0.918956E-02
      0.550000E-01      0.842189E-02
      0.600000E-01      0.765258E-02
      0.650000E-01      0.689446E-02
      0.700000E-01      0.615922E-02
      0.750000E-01      0.545710E-02
      0.800000E-01      0.479674E-02
      0.850000E-01      0.418500E-02
      0.900000E-01      0.362692E-02
      0.950000E-01      0.312570E-02
      0.100000          0.268282E-02
      0.105000          0.229808E-02
      0.110000          0.196982E-02
      0.115000          0.169513E-02
      0.120000          0.147004E-02
      0.125000          0.128982E-02
      0.130000          0.114917E-02
      0.135000          0.104249E-02
      0.140000          0.964123E-03
      0.145000          0.908529E-03
      0.150000          0.870466E-03
      0.155000          0.845135E-03
      0.160000          0.828283E-03
      0.165000          0.816269E-03
      0.170000          0.806107E-03
      0.175000          0.795461E-03
      0.180000          0.782630E-03
      0.185000          0.766498E-03
      0.190000          0.746471E-03
      0.195000          0.722400E-03
      0.200000          0.694502E-03
      0.205000          0.663267E-03
      0.210000          0.629383E-03
      0.215000          0.593652E-03
      0.220000          0.556921E-03
      0.225000          0.520025E-03
      0.230000          0.483738E-03
      0.235000          0.448739E-03
      0.240000          0.415586E-03
      0.245000          0.384703E-03
      0.250000          0.356381E-03
      0.255000          0.330776E-03
      0.260000          0.307930E-03
      0.265000          0.287778E-03
      0.270000          0.270176E-03
      0.275000          0.254915E-03
      0.280000          0.241744E-03
      0.285000          0.230392E-03
      0.290000          0.220580E-03
      0.295000          0.212043E-03
      0.300000          0.204534E-03
      0.305000          0.197836E-03
      0.310000          0.191767E-03
      0.315000          0.186183E-03
      0.320000          0.180974E-03
      0.325000          0.176066E-03
      0.330000          0.171412E-03
      0.335000          0.166994E-03
      0.340000          0.162806E-03
      0.345000          0.158861E-03
      0.350000          0.155176E-03
      0.355000          0.151767E-03
      0.360000          0.148652E-03
      0.365000          0.145840E-03
      0.370000          0.143330E-03
      0.375000          0.141113E-03
      0.380000          0.139168E-03
      0.385000          0.137464E-03
      0.390000          0.135959E-03
      0.395000          0.134608E-03
      0.400000          0.133357E-03
      0.405000          0.132151E-03
      0.410000          0.130936E-03
      0.415000          0.129661E-03
      0.420000          0.128278E-03
      0.425000          0.126750E-03
      0.430000          0.125047E-03
      0.435000          0.123150E-03
      0.440000          0.121050E-03
      0.445000          0.118749E-03
      0.450000          0.116262E-03
      0.455000          0.113610E-03
      0.460000          0.110825E-03
      0.465000          0.107944E-03
      0.470000          0.105009E-03
      0.475000          0.102065E-03
      0.480000          0.991578E-04
      0.485000          0.963300E-04
      0.490000          0.936223E-04
      0.495000          0.910698E-04
      0.500000          0.887010E-04
