 I_abs(s)[cm^-1]/c[mg/ml]
       0.00000          0.133147E-01
      0.500000E-02      0.131920E-01
      0.100000E-01      0.128312E-01
      0.150000E-01      0.122532E-01
      0.200000E-01      0.114911E-01
      0.250000E-01      0.105866E-01
      0.300000E-01      0.958683E-02
      0.350000E-01      0.854003E-02
      0.400000E-01      0.749211E-02
      0.450000E-01      0.648328E-02
      0.500000E-01      0.554570E-02
      0.550000E-01      0.470216E-02
      0.600000E-01      0.396580E-02
      0.650000E-01      0.334074E-02
      0.700000E-01      0.282356E-02
      0.750000E-01      0.240515E-02
      0.800000E-01      0.207285E-02
      0.850000E-01      0.181239E-02
      0.900000E-01      0.160961E-02
      0.950000E-01      0.145169E-02
      0.100000          0.132782E-02
      0.105000          0.122950E-02
      0.110000          0.115035E-02
      0.115000          0.108572E-02
      0.120000          0.103220E-02
      0.125000          0.987116E-03
      0.130000          0.948177E-03
      0.135000          0.913262E-03
      0.140000          0.880387E-03
      0.145000          0.847795E-03
      0.150000          0.814122E-03
      0.155000          0.778563E-03
      0.160000          0.740981E-03
      0.165000          0.701923E-03
      0.170000          0.662513E-03
      0.175000          0.624260E-03
      0.180000          0.588787E-03
      0.185000          0.557561E-03
      0.190000          0.531641E-03
      0.195000          0.511512E-03
      0.200000          0.497020E-03
      0.205000          0.487408E-03
      0.210000          0.481456E-03
      0.215000          0.477682E-03
      0.220000          0.474566E-03
      0.225000          0.470771E-03
      0.230000          0.465300E-03
      0.235000          0.457600E-03
      0.240000          0.447573E-03
      0.245000          0.435519E-03
      0.250000          0.422023E-03
      0.255000          0.407811E-03
      0.260000          0.393603E-03
      0.265000          0.379990E-03
      0.270000          0.367353E-03
      0.275000          0.355825E-03
      0.280000          0.345311E-03
      0.285000          0.335540E-03
      0.290000          0.326146E-03
      0.295000          0.316758E-03
      0.300000          0.307071E-03
      0.305000          0.296910E-03
      0.310000          0.286251E-03
      0.315000          0.275218E-03
      0.320000          0.264057E-03
      0.325000          0.253083E-03
      0.330000          0.242625E-03
      0.335000          0.232974E-03
      0.340000          0.224341E-03
      0.345000          0.216829E-03
      0.350000          0.210430E-03
      0.355000          0.205037E-03
      0.360000          0.200467E-03
      0.365000          0.196495E-03
      0.370000          0.192893E-03
      0.375000          0.189452E-03
      0.380000          0.186015E-03
      0.385000          0.182482E-03
      0.390000          0.178813E-03
      0.395000          0.175019E-03
      0.400000          0.171152E-03
      0.405000          0.167280E-03
      0.410000          0.163479E-03
      0.415000          0.159808E-03
      0.420000          0.156312E-03
      0.425000          0.153007E-03
      0.430000          0.149889E-03
      0.435000          0.146936E-03
      0.440000          0.144115E-03
      0.445000          0.141394E-03
      0.450000          0.138744E-03
      0.455000          0.136148E-03
      0.460000          0.133603E-03
      0.465000          0.131119E-03
      0.470000          0.128717E-03
      0.475000          0.126424E-03
      0.480000          0.124270E-03
      0.485000          0.122282E-03
      0.490000          0.120480E-03
      0.495000          0.118871E-03
      0.500000          0.117453E-03
