 I_abs(s)[cm^-1]/c[mg/ml]
       0.00000          0.129149E-01
      0.500000E-02      0.128005E-01
      0.100000E-01      0.124650E-01
      0.150000E-01      0.119307E-01
      0.200000E-01      0.112322E-01
      0.250000E-01      0.104123E-01
      0.300000E-01      0.951801E-02
      0.350000E-01      0.859578E-02
      0.400000E-01      0.768754E-02
      0.450000E-01      0.682751E-02
      0.500000E-01      0.604038E-02
      0.550000E-01      0.534069E-02
      0.600000E-01      0.473358E-02
      0.650000E-01      0.421629E-02
      0.700000E-01      0.378044E-02
      0.750000E-01      0.341430E-02
      0.800000E-01      0.310500E-02
      0.850000E-01      0.284023E-02
      0.900000E-01      0.260939E-02
      0.950000E-01      0.240420E-02
      0.100000          0.221864E-02
      0.105000          0.204877E-02
      0.110000          0.189214E-02
      0.115000          0.174733E-02
      0.120000          0.161343E-02
      0.125000          0.148981E-02
      0.130000          0.137589E-02
      0.135000          0.127113E-02
      0.140000          0.117500E-02
      0.145000          0.108705E-02
      0.150000          0.100689E-02
      0.155000          0.934189E-03
      0.160000          0.868604E-03
      0.165000          0.809735E-03
      0.170000          0.757066E-03
      0.175000          0.709943E-03
      0.180000          0.667597E-03
      0.185000          0.629191E-03
      0.190000          0.593901E-03
      0.195000          0.560995E-03
      0.200000          0.529899E-03
      0.205000          0.500241E-03
      0.210000          0.471857E-03
      0.215000          0.444774E-03
      0.220000          0.419162E-03
      0.225000          0.395285E-03
      0.230000          0.373436E-03
      0.235000          0.353888E-03
      0.240000          0.336848E-03
      0.245000          0.322424E-03
      0.250000          0.310603E-03
      0.255000          0.301241E-03
      0.260000          0.294058E-03
      0.265000          0.288661E-03
      0.270000          0.284561E-03
      0.275000          0.281220E-03
      0.280000          0.278100E-03
      0.285000          0.274716E-03
      0.290000          0.270689E-03
      0.295000          0.265782E-03
      0.300000          0.259918E-03
      0.305000          0.253174E-03
      0.310000          0.245750E-03
      0.315000          0.237920E-03
      0.320000          0.229978E-03
      0.325000          0.222186E-03
      0.330000          0.214732E-03
      0.335000          0.207717E-03
      0.340000          0.201153E-03
      0.345000          0.194991E-03
      0.350000          0.189151E-03
      0.355000          0.183559E-03
      0.360000          0.178172E-03
      0.365000          0.172991E-03
      0.370000          0.168053E-03
      0.375000          0.163416E-03
      0.380000          0.159132E-03
      0.385000          0.155218E-03
      0.390000          0.151645E-03
      0.395000          0.148331E-03
      0.400000          0.145150E-03
      0.405000          0.141964E-03
      0.410000          0.138645E-03
      0.415000          0.135105E-03
      0.420000          0.131317E-03
      0.425000          0.127317E-03
      0.430000          0.123198E-03
      0.435000          0.119084E-03
      0.440000          0.115106E-03
      0.445000          0.111372E-03
      0.450000          0.107943E-03
      0.455000          0.104828E-03
      0.460000          0.101984E-03
      0.465000          0.993323E-04
      0.470000          0.967812E-04
      0.475000          0.942504E-04
      0.480000          0.916907E-04
      0.485000          0.890956E-04
      0.490000          0.865016E-04
      0.495000          0.839781E-04
      0.500000          0.816092E-04
