 I_abs(s)[cm^-1]/c[mg/ml]
       0.00000          0.146240E-01
      0.500000E-02      0.145701E-01
      0.100000E-01      0.144095E-01
      0.150000E-01      0.141459E-01
      0.200000E-01      0.137852E-01
      0.250000E-01      0.133354E-01
      0.300000E-01      0.128064E-01
      0.350000E-01      0.122092E-01
      0.400000E-01      0.115562E-01
      0.450000E-01      0.108602E-01
      0.500000E-01      0.101343E-01
      0.550000E-01      0.939144E-02
      0.600000E-01      0.864389E-02
      0.650000E-01      0.790312E-02
      0.700000E-01      0.717943E-02
      0.750000E-01      0.648175E-02
      0.800000E-01      0.581751E-02
      0.850000E-01      0.519257E-02
      0.900000E-01      0.461122E-02
      0.950000E-01      0.407624E-02
      0.100000          0.358898E-02
      0.105000          0.314954E-02
      0.110000          0.275694E-02
      0.115000          0.240930E-02
      0.120000          0.210404E-02
      0.125000          0.183809E-02
      0.130000          0.160808E-02
      0.135000          0.141045E-02
      0.140000          0.124168E-02
      0.145000          0.109832E-02
      0.150000          0.977099E-03
      0.155000          0.875018E-03
      0.160000          0.789339E-03
      0.165000          0.717618E-03
      0.170000          0.657699E-03
      0.175000          0.607700E-03
      0.180000          0.565984E-03
      0.185000          0.531138E-03
      0.190000          0.501935E-03
      0.195000          0.477318E-03
      0.200000          0.456365E-03
      0.205000          0.438277E-03
      0.210000          0.422362E-03
      0.215000          0.408022E-03
      0.220000          0.394750E-03
      0.225000          0.382123E-03
      0.230000          0.369800E-03
      0.235000          0.357521E-03
      0.240000          0.345102E-03
      0.245000          0.332434E-03
      0.250000          0.319473E-03
      0.255000          0.306237E-03
      0.260000          0.292796E-03
      0.265000          0.279256E-03
      0.270000          0.265757E-03
      0.275000          0.252453E-03
      0.280000          0.239504E-03
      0.285000          0.227066E-03
      0.290000          0.215283E-03
      0.295000          0.204277E-03
      0.300000          0.194143E-03
      0.305000          0.184949E-03
      0.310000          0.176731E-03
      0.315000          0.169496E-03
      0.320000          0.163223E-03
      0.325000          0.157867E-03
      0.330000          0.153362E-03
      0.335000          0.149625E-03
      0.340000          0.146563E-03
      0.345000          0.144078E-03
      0.350000          0.142065E-03
      0.355000          0.140425E-03
      0.360000          0.139061E-03
      0.365000          0.137882E-03
      0.370000          0.136809E-03
      0.375000          0.135771E-03
      0.380000          0.134709E-03
      0.385000          0.133575E-03
      0.390000          0.132333E-03
      0.395000          0.130956E-03
      0.400000          0.129428E-03
      0.405000          0.127744E-03
      0.410000          0.125905E-03
      0.415000          0.123919E-03
      0.420000          0.121801E-03
      0.425000          0.119568E-03
      0.430000          0.117241E-03
      0.435000          0.114843E-03
      0.440000          0.112396E-03
      0.445000          0.109924E-03
      0.450000          0.107445E-03
      0.455000          0.104979E-03
      0.460000          0.102541E-03
      0.465000          0.100142E-03
      0.470000          0.977914E-04
      0.475000          0.954956E-04
      0.480000          0.932574E-04
      0.485000          0.910773E-04
      0.490000          0.889543E-04
      0.495000          0.868858E-04
      0.500000          0.848686E-04
