 I_abs(s)[cm^-1]/c[mg/ml]
       0.00000          0.145922E-01
      0.500000E-02      0.145363E-01
      0.100000E-01      0.143696E-01
      0.150000E-01      0.140958E-01
      0.200000E-01      0.137205E-01
      0.250000E-01      0.132516E-01
      0.300000E-01      0.126987E-01
      0.350000E-01      0.120730E-01
      0.400000E-01      0.113866E-01
      0.450000E-01      0.106527E-01
      0.500000E-01      0.988475E-02
      0.550000E-01      0.909630E-02
      0.600000E-01      0.830057E-02
      0.650000E-01      0.751010E-02
      0.700000E-01      0.673647E-02
      0.750000E-01      0.599004E-02
      0.800000E-01      0.527980E-02
      0.850000E-01      0.461313E-02
      0.900000E-01      0.399581E-02
      0.950000E-01      0.343197E-02
      0.100000          0.292412E-02
      0.105000          0.247322E-02
      0.110000          0.207883E-02
      0.115000          0.173926E-02
      0.120000          0.145178E-02
      0.125000          0.121277E-02
      0.130000          0.101799E-02
      0.135000          0.862746E-03
      0.140000          0.742096E-03
      0.145000          0.651049E-03
      0.150000          0.584708E-03
      0.155000          0.538409E-03
      0.160000          0.507833E-03
      0.165000          0.489080E-03
      0.170000          0.478728E-03
      0.175000          0.473854E-03
      0.180000          0.472041E-03
      0.185000          0.471366E-03
      0.190000          0.470360E-03
      0.195000          0.467975E-03
      0.200000          0.463527E-03
      0.205000          0.456640E-03
      0.210000          0.447195E-03
      0.215000          0.435269E-03
      0.220000          0.421089E-03
      0.225000          0.404982E-03
      0.230000          0.387337E-03
      0.235000          0.368572E-03
      0.240000          0.349109E-03
      0.245000          0.329352E-03
      0.250000          0.309674E-03
      0.255000          0.290407E-03
      0.260000          0.271838E-03
      0.265000          0.254204E-03
      0.270000          0.237696E-03
      0.275000          0.222458E-03
      0.280000          0.208591E-03
      0.285000          0.196156E-03
      0.290000          0.185176E-03
      0.295000          0.175644E-03
      0.300000          0.167521E-03
      0.305000          0.160744E-03
      0.310000          0.155228E-03
      0.315000          0.150870E-03
      0.320000          0.147552E-03
      0.325000          0.145147E-03
      0.330000          0.143521E-03
      0.335000          0.142536E-03
      0.340000          0.142059E-03
      0.345000          0.141960E-03
      0.350000          0.142119E-03
      0.355000          0.142425E-03
      0.360000          0.142784E-03
      0.365000          0.143115E-03
      0.370000          0.143355E-03
      0.375000          0.143456E-03
      0.380000          0.143384E-03
      0.385000          0.143122E-03
      0.390000          0.142663E-03
      0.395000          0.142010E-03
      0.400000          0.141174E-03
      0.405000          0.140169E-03
      0.410000          0.139015E-03
      0.415000          0.137730E-03
      0.420000          0.136332E-03
      0.425000          0.134835E-03
      0.430000          0.133253E-03
      0.435000          0.131596E-03
      0.440000          0.129872E-03
      0.445000          0.128084E-03
      0.450000          0.126240E-03
      0.455000          0.124343E-03
      0.460000          0.122400E-03
      0.465000          0.120419E-03
      0.470000          0.118414E-03
      0.475000          0.116397E-03
      0.480000          0.114389E-03
      0.485000          0.112411E-03
      0.490000          0.110487E-03
      0.495000          0.108643E-03
      0.500000          0.106902E-03
