 I_abs(s)[cm^-1]/c[mg/ml]
       0.00000          0.144654E-01
      0.500000E-02      0.144058E-01
      0.100000E-01      0.142284E-01
      0.150000E-01      0.139375E-01
      0.200000E-01      0.135402E-01
      0.250000E-01      0.130457E-01
      0.300000E-01      0.124657E-01
      0.350000E-01      0.118132E-01
      0.400000E-01      0.111027E-01
      0.450000E-01      0.103493E-01
      0.500000E-01      0.956825E-02
      0.550000E-01      0.877463E-02
      0.600000E-01      0.798278E-02
      0.650000E-01      0.720592E-02
      0.700000E-01      0.645582E-02
      0.750000E-01      0.574253E-02
      0.800000E-01      0.507424E-02
      0.850000E-01      0.445713E-02
      0.900000E-01      0.389542E-02
      0.950000E-01      0.339140E-02
      0.100000          0.294558E-02
      0.105000          0.255686E-02
      0.110000          0.222279E-02
      0.115000          0.193979E-02
      0.120000          0.170343E-02
      0.125000          0.150872E-02
      0.130000          0.135036E-02
      0.135000          0.122294E-02
      0.140000          0.112120E-02
      0.145000          0.104016E-02
      0.150000          0.975254E-03
      0.155000          0.922455E-03
      0.160000          0.878296E-03
      0.165000          0.839910E-03
      0.170000          0.805017E-03
      0.175000          0.771892E-03
      0.180000          0.739318E-03
      0.185000          0.706518E-03
      0.190000          0.673087E-03
      0.195000          0.638919E-03
      0.200000          0.604135E-03
      0.205000          0.569016E-03
      0.210000          0.533941E-03
      0.215000          0.499341E-03
      0.220000          0.465652E-03
      0.225000          0.433285E-03
      0.230000          0.402600E-03
      0.235000          0.373893E-03
      0.240000          0.347383E-03
      0.245000          0.323214E-03
      0.250000          0.301450E-03
      0.255000          0.282083E-03
      0.260000          0.265042E-03
      0.265000          0.250198E-03
      0.270000          0.237377E-03
      0.275000          0.226369E-03
      0.280000          0.216942E-03
      0.285000          0.208848E-03
      0.290000          0.201839E-03
      0.295000          0.195671E-03
      0.300000          0.190118E-03
      0.305000          0.184975E-03
      0.310000          0.180068E-03
      0.315000          0.175256E-03
      0.320000          0.170434E-03
      0.325000          0.165535E-03
      0.330000          0.160529E-03
      0.335000          0.155420E-03
      0.340000          0.150241E-03
      0.345000          0.145050E-03
      0.350000          0.139925E-03
      0.355000          0.134952E-03
      0.360000          0.130224E-03
      0.365000          0.125827E-03
      0.370000          0.121842E-03
      0.375000          0.118330E-03
      0.380000          0.115337E-03
      0.385000          0.112884E-03
      0.390000          0.110969E-03
      0.395000          0.109570E-03
      0.400000          0.108639E-03
      0.405000          0.108113E-03
      0.410000          0.107913E-03
      0.415000          0.107950E-03
      0.420000          0.108132E-03
      0.425000          0.108366E-03
      0.430000          0.108561E-03
      0.435000          0.108639E-03
      0.440000          0.108534E-03
      0.445000          0.108191E-03
      0.450000          0.107577E-03
      0.455000          0.106673E-03
      0.460000          0.105476E-03
      0.465000          0.104000E-03
      0.470000          0.102273E-03
      0.475000          0.100334E-03
      0.480000          0.982296E-04
      0.485000          0.960123E-04
      0.490000          0.937374E-04
      0.495000          0.914599E-04
      0.500000          0.892323E-04
