 I_abs(s)[cm^-1]/c[mg/ml]
       0.00000          0.142526E-01
      0.500000E-02      0.141904E-01
      0.100000E-01      0.140054E-01
      0.150000E-01      0.137026E-01
      0.200000E-01      0.132902E-01
      0.250000E-01      0.127789E-01
      0.300000E-01      0.121820E-01
      0.350000E-01      0.115143E-01
      0.400000E-01      0.107921E-01
      0.450000E-01      0.100320E-01
      0.500000E-01      0.925050E-02
      0.550000E-01      0.846366E-02
      0.600000E-01      0.768625E-02
      0.650000E-01      0.693144E-02
      0.700000E-01      0.621050E-02
      0.750000E-01      0.553248E-02
      0.800000E-01      0.490418E-02
      0.850000E-01      0.433011E-02
      0.900000E-01      0.381259E-02
      0.950000E-01      0.335193E-02
      0.100000          0.294672E-02
      0.105000          0.259408E-02
      0.110000          0.229006E-02
      0.115000          0.202991E-02
      0.120000          0.180849E-02
      0.125000          0.162049E-02
      0.130000          0.146076E-02
      0.135000          0.132447E-02
      0.140000          0.120729E-02
      0.145000          0.110549E-02
      0.150000          0.101597E-02
      0.155000          0.936263E-03
      0.160000          0.864519E-03
      0.165000          0.799397E-03
      0.170000          0.740000E-03
      0.175000          0.685766E-03
      0.180000          0.636367E-03
      0.185000          0.591621E-03
      0.190000          0.551405E-03
      0.195000          0.515594E-03
      0.200000          0.484013E-03
      0.205000          0.456413E-03
      0.210000          0.432460E-03
      0.215000          0.411741E-03
      0.220000          0.393780E-03
      0.225000          0.378065E-03
      0.230000          0.364075E-03
      0.235000          0.351310E-03
      0.240000          0.339315E-03
      0.245000          0.327706E-03
      0.250000          0.316179E-03
      0.255000          0.304523E-03
      0.260000          0.292617E-03
      0.265000          0.280427E-03
      0.270000          0.267991E-03
      0.275000          0.255410E-03
      0.280000          0.242828E-03
      0.285000          0.230413E-03
      0.290000          0.218343E-03
      0.295000          0.206789E-03
      0.300000          0.195905E-03
      0.305000          0.185814E-03
      0.310000          0.176609E-03
      0.315000          0.168344E-03
      0.320000          0.161038E-03
      0.325000          0.154676E-03
      0.330000          0.149213E-03
      0.335000          0.144580E-03
      0.340000          0.140691E-03
      0.345000          0.137448E-03
      0.350000          0.134748E-03
      0.355000          0.132484E-03
      0.360000          0.130559E-03
      0.365000          0.128880E-03
      0.370000          0.127365E-03
      0.375000          0.125946E-03
      0.380000          0.124568E-03
      0.385000          0.123189E-03
      0.390000          0.121785E-03
      0.395000          0.120342E-03
      0.400000          0.118860E-03
      0.405000          0.117349E-03
      0.410000          0.115830E-03
      0.415000          0.114330E-03
      0.420000          0.112881E-03
      0.425000          0.111516E-03
      0.430000          0.110271E-03
      0.435000          0.109175E-03
      0.440000          0.108255E-03
      0.445000          0.107528E-03
      0.450000          0.107002E-03
      0.455000          0.106676E-03
      0.460000          0.106537E-03
      0.465000          0.106559E-03
      0.470000          0.106708E-03
      0.475000          0.106940E-03
      0.480000          0.107204E-03
      0.485000          0.107445E-03
      0.490000          0.107607E-03
      0.495000          0.107635E-03
      0.500000          0.107481E-03
