 I_abs(s)[cm^-1]/c[mg/ml]
       0.00000          0.148716E-01
      0.500000E-02      0.148158E-01
      0.100000E-01      0.146496E-01
      0.150000E-01      0.143770E-01
      0.200000E-01      0.140041E-01
      0.250000E-01      0.135393E-01
      0.300000E-01      0.129929E-01
      0.350000E-01      0.123766E-01
      0.400000E-01      0.117032E-01
      0.450000E-01      0.109861E-01
      0.500000E-01      0.102389E-01
      0.550000E-01      0.947504E-02
      0.600000E-01      0.870727E-02
      0.650000E-01      0.794738E-02
      0.700000E-01      0.720594E-02
      0.750000E-01      0.649206E-02
      0.800000E-01      0.581325E-02
      0.850000E-01      0.517540E-02
      0.900000E-01      0.458274E-02
      0.950000E-01      0.403792E-02
      0.100000          0.354214E-02
      0.105000          0.309534E-02
      0.110000          0.269633E-02
      0.115000          0.234303E-02
      0.120000          0.203272E-02
      0.125000          0.176216E-02
      0.130000          0.152786E-02
      0.135000          0.132620E-02
      0.140000          0.115357E-02
      0.145000          0.100650E-02
      0.150000          0.881751E-03
      0.155000          0.776311E-03
      0.160000          0.687479E-03
      0.165000          0.612847E-03
      0.170000          0.550292E-03
      0.175000          0.497961E-03
      0.180000          0.454240E-03
      0.185000          0.417726E-03
      0.190000          0.387201E-03
      0.195000          0.361603E-03
      0.200000          0.340005E-03
      0.205000          0.321603E-03
      0.210000          0.305702E-03
      0.215000          0.291709E-03
      0.220000          0.279129E-03
      0.225000          0.267563E-03
      0.230000          0.256701E-03
      0.235000          0.246326E-03
      0.240000          0.236301E-03
      0.245000          0.226565E-03
      0.250000          0.217119E-03
      0.255000          0.208020E-03
      0.260000          0.199357E-03
      0.265000          0.191243E-03
      0.270000          0.183798E-03
      0.275000          0.177135E-03
      0.280000          0.171345E-03
      0.285000          0.166492E-03
      0.290000          0.162603E-03
      0.295000          0.159666E-03
      0.300000          0.157631E-03
      0.305000          0.156412E-03
      0.310000          0.155891E-03
      0.315000          0.155931E-03
      0.320000          0.156380E-03
      0.325000          0.157080E-03
      0.330000          0.157879E-03
      0.335000          0.158636E-03
      0.340000          0.159229E-03
      0.345000          0.159559E-03
      0.350000          0.159554E-03
      0.355000          0.159168E-03
      0.360000          0.158381E-03
      0.365000          0.157196E-03
      0.370000          0.155636E-03
      0.375000          0.153741E-03
      0.380000          0.151560E-03
      0.385000          0.149150E-03
      0.390000          0.146569E-03
      0.395000          0.143874E-03
      0.400000          0.141117E-03
      0.405000          0.138344E-03
      0.410000          0.135594E-03
      0.415000          0.132897E-03
      0.420000          0.130275E-03
      0.425000          0.127745E-03
      0.430000          0.125315E-03
      0.435000          0.122992E-03
      0.440000          0.120776E-03
      0.445000          0.118666E-03
      0.450000          0.116660E-03
      0.455000          0.114754E-03
      0.460000          0.112944E-03
      0.465000          0.111225E-03
      0.470000          0.109592E-03
      0.475000          0.108039E-03
      0.480000          0.106557E-03
      0.485000          0.105140E-03
      0.490000          0.103778E-03
      0.495000          0.102459E-03
      0.500000          0.101171E-03
