 I_abs(s)[cm^-1]/c[mg/ml]
       0.00000          0.141039E-01
      0.500000E-02      0.140273E-01
      0.100000E-01      0.137997E-01
      0.150000E-01      0.134282E-01
      0.200000E-01      0.129237E-01
      0.250000E-01      0.123012E-01
      0.300000E-01      0.115785E-01
      0.350000E-01      0.107760E-01
      0.400000E-01      0.991551E-02
      0.450000E-01      0.901933E-02
      0.500000E-01      0.810960E-02
      0.550000E-01      0.720732E-02
      0.600000E-01      0.633167E-02
      0.650000E-01      0.549937E-02
      0.700000E-01      0.472424E-02
      0.750000E-01      0.401686E-02
      0.800000E-01      0.338450E-02
      0.850000E-01      0.283111E-02
      0.900000E-01      0.235751E-02
      0.950000E-01      0.196169E-02
      0.100000          0.163925E-02
      0.105000          0.138386E-02
      0.110000          0.118778E-02
      0.115000          0.104243E-02
      0.120000          0.938854E-03
      0.125000          0.868218E-03
      0.130000          0.822187E-03
      0.135000          0.793252E-03
      0.140000          0.774946E-03
      0.145000          0.761988E-03
      0.150000          0.750323E-03
      0.155000          0.737097E-03
      0.160000          0.720558E-03
      0.165000          0.699914E-03
      0.170000          0.675155E-03
      0.175000          0.646854E-03
      0.180000          0.615977E-03
      0.185000          0.583693E-03
      0.190000          0.551217E-03
      0.195000          0.519674E-03
      0.200000          0.490009E-03
      0.205000          0.462915E-03
      0.210000          0.438817E-03
      0.215000          0.417864E-03
      0.220000          0.399963E-03
      0.225000          0.384820E-03
      0.230000          0.371995E-03
      0.235000          0.360965E-03
      0.240000          0.351180E-03
      0.245000          0.342115E-03
      0.250000          0.333316E-03
      0.255000          0.324420E-03
      0.260000          0.315183E-03
      0.265000          0.305476E-03
      0.270000          0.295283E-03
      0.275000          0.284682E-03
      0.280000          0.273825E-03
      0.285000          0.262910E-03
      0.290000          0.252160E-03
      0.295000          0.241793E-03
      0.300000          0.232002E-03
      0.305000          0.222941E-03
      0.310000          0.214713E-03
      0.315000          0.207366E-03
      0.320000          0.200891E-03
      0.325000          0.195232E-03
      0.330000          0.190290E-03
      0.335000          0.185938E-03
      0.340000          0.182029E-03
      0.345000          0.178417E-03
      0.350000          0.174958E-03
      0.355000          0.171528E-03
      0.360000          0.168029E-03
      0.365000          0.164390E-03
      0.370000          0.160574E-03
      0.375000          0.156575E-03
      0.380000          0.152416E-03
      0.385000          0.148145E-03
      0.390000          0.143831E-03
      0.395000          0.139552E-03
      0.400000          0.135396E-03
      0.405000          0.131447E-03
      0.410000          0.127785E-03
      0.415000          0.124478E-03
      0.420000          0.121578E-03
      0.425000          0.119119E-03
      0.430000          0.117117E-03
      0.435000          0.115566E-03
      0.440000          0.114443E-03
      0.445000          0.113706E-03
      0.450000          0.113300E-03
      0.455000          0.113160E-03
      0.460000          0.113210E-03
      0.465000          0.113372E-03
      0.470000          0.113568E-03
      0.475000          0.113724E-03
      0.480000          0.113771E-03
      0.485000          0.113651E-03
      0.490000          0.113316E-03
      0.495000          0.112732E-03
      0.500000          0.111881E-03
