 I_abs(s)[cm^-1]/c[mg/ml]
       0.00000          0.145288E-01
      0.500000E-02      0.144722E-01
      0.100000E-01      0.143039E-01
      0.150000E-01      0.140275E-01
      0.200000E-01      0.136490E-01
      0.250000E-01      0.131765E-01
      0.300000E-01      0.126200E-01
      0.350000E-01      0.119911E-01
      0.400000E-01      0.113025E-01
      0.450000E-01      0.105676E-01
      0.500000E-01      0.980021E-02
      0.550000E-01      0.901429E-02
      0.600000E-01      0.822318E-02
      0.650000E-01      0.743953E-02
      0.700000E-01      0.667492E-02
      0.750000E-01      0.593958E-02
      0.800000E-01      0.524223E-02
      0.850000E-01      0.458993E-02
      0.900000E-01      0.398803E-02
      0.950000E-01      0.344017E-02
      0.100000          0.294829E-02
      0.105000          0.251283E-02
      0.110000          0.213280E-02
      0.115000          0.180602E-02
      0.120000          0.152930E-02
      0.125000          0.129869E-02
      0.130000          0.110967E-02
      0.135000          0.957425E-03
      0.140000          0.836985E-03
      0.145000          0.743452E-03
      0.150000          0.672137E-03
      0.155000          0.618684E-03
      0.160000          0.579162E-03
      0.165000          0.550124E-03
      0.170000          0.528641E-03
      0.175000          0.512301E-03
      0.180000          0.499188E-03
      0.185000          0.487846E-03
      0.190000          0.477228E-03
      0.195000          0.466631E-03
      0.200000          0.455637E-03
      0.205000          0.444044E-03
      0.210000          0.431808E-03
      0.215000          0.418990E-03
      0.220000          0.405707E-03
      0.225000          0.392101E-03
      0.230000          0.378308E-03
      0.235000          0.364441E-03
      0.240000          0.350587E-03
      0.245000          0.336799E-03
      0.250000          0.323104E-03
      0.255000          0.309510E-03
      0.260000          0.296014E-03
      0.265000          0.282615E-03
      0.270000          0.269322E-03
      0.275000          0.256160E-03
      0.280000          0.243179E-03
      0.285000          0.230451E-03
      0.290000          0.218073E-03
      0.295000          0.206161E-03
      0.300000          0.194845E-03
      0.305000          0.184261E-03
      0.310000          0.174539E-03
      0.315000          0.165802E-03
      0.320000          0.158149E-03
      0.325000          0.151652E-03
      0.330000          0.146352E-03
      0.335000          0.142250E-03
      0.340000          0.139312E-03
      0.345000          0.137465E-03
      0.350000          0.136602E-03
      0.355000          0.136589E-03
      0.360000          0.137266E-03
      0.365000          0.138460E-03
      0.370000          0.139989E-03
      0.375000          0.141672E-03
      0.380000          0.143339E-03
      0.385000          0.144831E-03
      0.390000          0.146013E-03
      0.395000          0.146775E-03
      0.400000          0.147035E-03
      0.405000          0.146742E-03
      0.410000          0.145874E-03
      0.415000          0.144436E-03
      0.420000          0.142462E-03
      0.425000          0.140004E-03
      0.430000          0.137134E-03
      0.435000          0.133933E-03
      0.440000          0.130491E-03
      0.445000          0.126901E-03
      0.450000          0.123250E-03
      0.455000          0.119622E-03
      0.460000          0.116088E-03
      0.465000          0.112708E-03
      0.470000          0.109528E-03
      0.475000          0.106579E-03
      0.480000          0.103877E-03
      0.485000          0.101424E-03
      0.490000          0.992113E-04
      0.495000          0.972198E-04
      0.500000          0.954231E-04
