 I_abs(s)[cm^-1]/c[mg/ml]
       0.00000          0.143628E-01
      0.500000E-02      0.142952E-01
      0.100000E-01      0.140944E-01
      0.150000E-01      0.137655E-01
      0.200000E-01      0.133173E-01
      0.250000E-01      0.127612E-01
      0.300000E-01      0.121113E-01
      0.350000E-01      0.113838E-01
      0.400000E-01      0.105960E-01
      0.450000E-01      0.976612E-02
      0.500000E-01      0.891248E-02
      0.550000E-01      0.805286E-02
      0.600000E-01      0.720396E-02
      0.650000E-01      0.638094E-02
      0.700000E-01      0.559698E-02
      0.750000E-01      0.486302E-02
      0.800000E-01      0.418756E-02
      0.850000E-01      0.357659E-02
      0.900000E-01      0.303359E-02
      0.950000E-01      0.255974E-02
      0.100000          0.215405E-02
      0.105000          0.181367E-02
      0.110000          0.153423E-02
      0.115000          0.131018E-02
      0.120000          0.113513E-02
      0.125000          0.100223E-02
      0.130000          0.904468E-03
      0.135000          0.834992E-03
      0.140000          0.787321E-03
      0.145000          0.755551E-03
      0.150000          0.734490E-03
      0.155000          0.719743E-03
      0.160000          0.707748E-03
      0.165000          0.695767E-03
      0.170000          0.681844E-03
      0.175000          0.664731E-03
      0.180000          0.643796E-03
      0.185000          0.618917E-03
      0.190000          0.590376E-03
      0.195000          0.558749E-03
      0.200000          0.524808E-03
      0.205000          0.489427E-03
      0.210000          0.453509E-03
      0.215000          0.417924E-03
      0.220000          0.383459E-03
      0.225000          0.350790E-03
      0.230000          0.320457E-03
      0.235000          0.292859E-03
      0.240000          0.268255E-03
      0.245000          0.246770E-03
      0.250000          0.228411E-03
      0.255000          0.213083E-03
      0.260000          0.200609E-03
      0.265000          0.190747E-03
      0.270000          0.183213E-03
      0.275000          0.177697E-03
      0.280000          0.173879E-03
      0.285000          0.171445E-03
      0.290000          0.170093E-03
      0.295000          0.169552E-03
      0.300000          0.169576E-03
      0.305000          0.169960E-03
      0.310000          0.170535E-03
      0.315000          0.171168E-03
      0.320000          0.171765E-03
      0.325000          0.172261E-03
      0.330000          0.172624E-03
      0.335000          0.172840E-03
      0.340000          0.172916E-03
      0.345000          0.172867E-03
      0.350000          0.172718E-03
      0.355000          0.172492E-03
      0.360000          0.172210E-03
      0.365000          0.171885E-03
      0.370000          0.171523E-03
      0.375000          0.171118E-03
      0.380000          0.170657E-03
      0.385000          0.170115E-03
      0.390000          0.169462E-03
      0.395000          0.168665E-03
      0.400000          0.167687E-03
      0.405000          0.166495E-03
      0.410000          0.165059E-03
      0.415000          0.163357E-03
      0.420000          0.161378E-03
      0.425000          0.159120E-03
      0.430000          0.156595E-03
      0.435000          0.153823E-03
      0.440000          0.150837E-03
      0.445000          0.147678E-03
      0.450000          0.144396E-03
      0.455000          0.141040E-03
      0.460000          0.137666E-03
      0.465000          0.134323E-03
      0.470000          0.131060E-03
      0.475000          0.127917E-03
      0.480000          0.124925E-03
      0.485000          0.122108E-03
      0.490000          0.119478E-03
      0.495000          0.117036E-03
      0.500000          0.114777E-03
