 I_abs(s)[cm^-1]/c[mg/ml]
       0.00000          0.147037E-01
      0.500000E-02      0.146405E-01
      0.100000E-01      0.144526E-01
      0.150000E-01      0.141449E-01
      0.200000E-01      0.137251E-01
      0.250000E-01      0.132037E-01
      0.300000E-01      0.125935E-01
      0.350000E-01      0.119090E-01
      0.400000E-01      0.111659E-01
      0.450000E-01      0.103804E-01
      0.500000E-01      0.956887E-02
      0.550000E-01      0.874708E-02
      0.600000E-01      0.792984E-02
      0.650000E-01      0.713053E-02
      0.700000E-01      0.636082E-02
      0.750000E-01      0.563041E-02
      0.800000E-01      0.494698E-02
      0.850000E-01      0.431607E-02
      0.900000E-01      0.374126E-02
      0.950000E-01      0.322422E-02
      0.100000          0.276497E-02
      0.105000          0.236207E-02
      0.110000          0.201296E-02
      0.115000          0.171416E-02
      0.120000          0.146156E-02
      0.125000          0.125068E-02
      0.130000          0.107686E-02
      0.135000          0.935484E-03
      0.140000          0.822053E-03
      0.145000          0.732350E-03
      0.150000          0.662485E-03
      0.155000          0.608942E-03
      0.160000          0.568590E-03
      0.165000          0.538684E-03
      0.170000          0.516844E-03
      0.175000          0.501029E-03
      0.180000          0.489511E-03
      0.185000          0.480841E-03
      0.190000          0.473821E-03
      0.195000          0.467479E-03
      0.200000          0.461047E-03
      0.205000          0.453937E-03
      0.210000          0.445729E-03
      0.215000          0.436149E-03
      0.220000          0.425059E-03
      0.225000          0.412435E-03
      0.230000          0.398354E-03
      0.235000          0.382977E-03
      0.240000          0.366528E-03
      0.245000          0.349278E-03
      0.250000          0.331527E-03
      0.255000          0.313587E-03
      0.260000          0.295765E-03
      0.265000          0.278351E-03
      0.270000          0.261609E-03
      0.275000          0.245765E-03
      0.280000          0.231003E-03
      0.285000          0.217465E-03
      0.290000          0.205245E-03
      0.295000          0.194395E-03
      0.300000          0.184927E-03
      0.305000          0.176813E-03
      0.310000          0.169995E-03
      0.315000          0.164386E-03
      0.320000          0.159880E-03
      0.325000          0.156352E-03
      0.330000          0.153667E-03
      0.335000          0.151683E-03
      0.340000          0.150257E-03
      0.345000          0.149248E-03
      0.350000          0.148526E-03
      0.355000          0.147966E-03
      0.360000          0.147460E-03
      0.365000          0.146917E-03
      0.370000          0.146262E-03
      0.375000          0.145439E-03
      0.380000          0.144413E-03
      0.385000          0.143166E-03
      0.390000          0.141696E-03
      0.395000          0.140016E-03
      0.400000          0.138153E-03
      0.405000          0.136140E-03
      0.410000          0.134017E-03
      0.415000          0.131825E-03
      0.420000          0.129606E-03
      0.425000          0.127399E-03
      0.430000          0.125234E-03
      0.435000          0.123140E-03
      0.440000          0.121136E-03
      0.445000          0.119233E-03
      0.450000          0.117439E-03
      0.455000          0.115752E-03
      0.460000          0.114170E-03
      0.465000          0.112686E-03
      0.470000          0.111292E-03
      0.475000          0.109982E-03
      0.480000          0.108747E-03
      0.485000          0.107583E-03
      0.490000          0.106486E-03
      0.495000          0.105453E-03
      0.500000          0.104484E-03
