 I_abs(s)[cm^-1]/c[mg/ml]
       0.00000          0.148221E-01
      0.500000E-02      0.147579E-01
      0.100000E-01      0.145670E-01
      0.150000E-01      0.142547E-01
      0.200000E-01      0.138296E-01
      0.250000E-01      0.133031E-01
      0.300000E-01      0.126889E-01
      0.350000E-01      0.120026E-01
      0.400000E-01      0.112611E-01
      0.450000E-01      0.104814E-01
      0.500000E-01      0.968069E-02
      0.550000E-01      0.887517E-02
      0.600000E-01      0.807976E-02
      0.650000E-01      0.730761E-02
      0.700000E-01      0.656975E-02
      0.750000E-01      0.587493E-02
      0.800000E-01      0.522950E-02
      0.850000E-01      0.463749E-02
      0.900000E-01      0.410073E-02
      0.950000E-01      0.361910E-02
      0.100000          0.319083E-02
      0.105000          0.281284E-02
      0.110000          0.248112E-02
      0.115000          0.219106E-02
      0.120000          0.193780E-02
      0.125000          0.171653E-02
      0.130000          0.152268E-02
      0.135000          0.135216E-02
      0.140000          0.120140E-02
      0.145000          0.106746E-02
      0.150000          0.947985E-03
      0.155000          0.841199E-03
      0.160000          0.745785E-03
      0.165000          0.660809E-03
      0.170000          0.585603E-03
      0.175000          0.519658E-03
      0.180000          0.462533E-03
      0.185000          0.413770E-03
      0.190000          0.372845E-03
      0.195000          0.339134E-03
      0.200000          0.311905E-03
      0.205000          0.290327E-03
      0.210000          0.273504E-03
      0.215000          0.260509E-03
      0.220000          0.250429E-03
      0.225000          0.242413E-03
      0.230000          0.235707E-03
      0.235000          0.229686E-03
      0.240000          0.223878E-03
      0.245000          0.217965E-03
      0.250000          0.211786E-03
      0.255000          0.205316E-03
      0.260000          0.198643E-03
      0.265000          0.191941E-03
      0.270000          0.185432E-03
      0.275000          0.179354E-03
      0.280000          0.173933E-03
      0.285000          0.169351E-03
      0.290000          0.165733E-03
      0.295000          0.163132E-03
      0.300000          0.161524E-03
      0.305000          0.160815E-03
      0.310000          0.160847E-03
      0.315000          0.161415E-03
      0.320000          0.162287E-03
      0.325000          0.163216E-03
      0.330000          0.163967E-03
      0.335000          0.164330E-03
      0.340000          0.164135E-03
      0.345000          0.163260E-03
      0.350000          0.161642E-03
      0.355000          0.159270E-03
      0.360000          0.156191E-03
      0.365000          0.152499E-03
      0.370000          0.148323E-03
      0.375000          0.143824E-03
      0.380000          0.139174E-03
      0.385000          0.134551E-03
      0.390000          0.130124E-03
      0.395000          0.126046E-03
      0.400000          0.122445E-03
      0.405000          0.119417E-03
      0.410000          0.117028E-03
      0.415000          0.115307E-03
      0.420000          0.114255E-03
      0.425000          0.113839E-03
      0.430000          0.114004E-03
      0.435000          0.114671E-03
      0.440000          0.115751E-03
      0.445000          0.117142E-03
      0.450000          0.118739E-03
      0.455000          0.120438E-03
      0.460000          0.122139E-03
      0.465000          0.123748E-03
      0.470000          0.125184E-03
      0.475000          0.126377E-03
      0.480000          0.127267E-03
      0.485000          0.127810E-03
      0.490000          0.127974E-03
      0.495000          0.127738E-03
      0.500000          0.127094E-03
