 I_abs(s)[cm^-1]/c[mg/ml]
       0.00000          0.146143E-01
      0.500000E-02      0.145437E-01
      0.100000E-01      0.143339E-01
      0.150000E-01      0.139906E-01
      0.200000E-01      0.135229E-01
      0.250000E-01      0.129434E-01
      0.300000E-01      0.122671E-01
      0.350000E-01      0.115112E-01
      0.400000E-01      0.106943E-01
      0.450000E-01      0.983557E-02
      0.500000E-01      0.895443E-02
      0.550000E-01      0.806950E-02
      0.600000E-01      0.719819E-02
      0.650000E-01      0.635610E-02
      0.700000E-01      0.555667E-02
      0.750000E-01      0.481083E-02
      0.800000E-01      0.412684E-02
      0.850000E-01      0.351029E-02
      0.900000E-01      0.296412E-02
      0.950000E-01      0.248882E-02
      0.100000          0.208271E-02
      0.105000          0.174226E-02
      0.110000          0.146247E-02
      0.115000          0.123728E-02
      0.120000          0.105995E-02
      0.125000          0.923464E-03
      0.130000          0.820834E-03
      0.135000          0.745417E-03
      0.140000          0.691130E-03
      0.145000          0.652609E-03
      0.150000          0.625311E-03
      0.155000          0.605552E-03
      0.160000          0.590487E-03
      0.165000          0.578048E-03
      0.170000          0.566856E-03
      0.175000          0.556096E-03
      0.180000          0.545393E-03
      0.185000          0.534685E-03
      0.190000          0.524100E-03
      0.195000          0.513852E-03
      0.200000          0.504158E-03
      0.205000          0.495172E-03
      0.210000          0.486953E-03
      0.215000          0.479438E-03
      0.220000          0.472453E-03
      0.225000          0.465726E-03
      0.230000          0.458916E-03
      0.235000          0.451649E-03
      0.240000          0.443553E-03
      0.245000          0.434296E-03
      0.250000          0.423609E-03
      0.255000          0.411317E-03
      0.260000          0.397348E-03
      0.265000          0.381736E-03
      0.270000          0.364621E-03
      0.275000          0.346235E-03
      0.280000          0.326888E-03
      0.285000          0.306940E-03
      0.290000          0.286784E-03
      0.295000          0.266821E-03
      0.300000          0.247434E-03
      0.305000          0.228975E-03
      0.310000          0.211743E-03
      0.315000          0.195978E-03
      0.320000          0.181854E-03
      0.325000          0.169474E-03
      0.330000          0.158874E-03
      0.335000          0.150031E-03
      0.340000          0.142865E-03
      0.345000          0.137254E-03
      0.350000          0.133042E-03
      0.355000          0.130048E-03
      0.360000          0.128081E-03
      0.365000          0.126943E-03
      0.370000          0.126443E-03
      0.375000          0.126399E-03
      0.380000          0.126646E-03
      0.385000          0.127039E-03
      0.390000          0.127455E-03
      0.395000          0.127796E-03
      0.400000          0.127986E-03
      0.405000          0.127973E-03
      0.410000          0.127727E-03
      0.415000          0.127239E-03
      0.420000          0.126518E-03
      0.425000          0.125586E-03
      0.430000          0.124479E-03
      0.435000          0.123243E-03
      0.440000          0.121928E-03
      0.445000          0.120586E-03
      0.450000          0.119271E-03
      0.455000          0.118029E-03
      0.460000          0.116905E-03
      0.465000          0.115929E-03
      0.470000          0.115124E-03
      0.475000          0.114501E-03
      0.480000          0.114055E-03
      0.485000          0.113773E-03
      0.490000          0.113626E-03
      0.495000          0.113578E-03
      0.500000          0.113583E-03
