 I_abs(s)[cm^-1]/c[mg/ml]
       0.00000          0.142739E-01
      0.500000E-02      0.142018E-01
      0.100000E-01      0.139879E-01
      0.150000E-01      0.136388E-01
      0.200000E-01      0.131652E-01
      0.250000E-01      0.125815E-01
      0.300000E-01      0.119048E-01
      0.350000E-01      0.111544E-01
      0.400000E-01      0.103508E-01
      0.450000E-01      0.951468E-02
      0.500000E-01      0.866639E-02
      0.550000E-01      0.782481E-02
      0.600000E-01      0.700688E-02
      0.650000E-01      0.622701E-02
      0.700000E-01      0.549677E-02
      0.750000E-01      0.482471E-02
      0.800000E-01      0.421631E-02
      0.850000E-01      0.367420E-02
      0.900000E-01      0.319835E-02
      0.950000E-01      0.278651E-02
      0.100000          0.243466E-02
      0.105000          0.213743E-02
      0.110000          0.188862E-02
      0.115000          0.168165E-02
      0.120000          0.150991E-02
      0.125000          0.136713E-02
      0.130000          0.124762E-02
      0.135000          0.114639E-02
      0.140000          0.105927E-02
      0.145000          0.982916E-03
      0.150000          0.914767E-03
      0.155000          0.852953E-03
      0.160000          0.796184E-03
      0.165000          0.743629E-03
      0.170000          0.694791E-03
      0.175000          0.649393E-03
      0.180000          0.607280E-03
      0.185000          0.568353E-03
      0.190000          0.532515E-03
      0.195000          0.499642E-03
      0.200000          0.469577E-03
      0.205000          0.442127E-03
      0.210000          0.417081E-03
      0.215000          0.394223E-03
      0.220000          0.373349E-03
      0.225000          0.354277E-03
      0.230000          0.336857E-03
      0.235000          0.320969E-03
      0.240000          0.306526E-03
      0.245000          0.293457E-03
      0.250000          0.281704E-03
      0.255000          0.271211E-03
      0.260000          0.261909E-03
      0.265000          0.253718E-03
      0.270000          0.246535E-03
      0.275000          0.240242E-03
      0.280000          0.234706E-03
      0.285000          0.229789E-03
      0.290000          0.225355E-03
      0.295000          0.221277E-03
      0.300000          0.217449E-03
      0.305000          0.213789E-03
      0.310000          0.210246E-03
      0.315000          0.206795E-03
      0.320000          0.203439E-03
      0.325000          0.200202E-03
      0.330000          0.197121E-03
      0.335000          0.194238E-03
      0.340000          0.191591E-03
      0.345000          0.189209E-03
      0.350000          0.187104E-03
      0.355000          0.185268E-03
      0.360000          0.183671E-03
      0.365000          0.182265E-03
      0.370000          0.180985E-03
      0.375000          0.179758E-03
      0.380000          0.178506E-03
      0.385000          0.177155E-03
      0.390000          0.175640E-03
      0.395000          0.173912E-03
      0.400000          0.171941E-03
      0.405000          0.169717E-03
      0.410000          0.167252E-03
      0.415000          0.164573E-03
      0.420000          0.161725E-03
      0.425000          0.158760E-03
      0.430000          0.155737E-03
      0.435000          0.152712E-03
      0.440000          0.149734E-03
      0.445000          0.146843E-03
      0.450000          0.144067E-03
      0.455000          0.141417E-03
      0.460000          0.138891E-03
      0.465000          0.136475E-03
      0.470000          0.134146E-03
      0.475000          0.131870E-03
      0.480000          0.129616E-03
      0.485000          0.127351E-03
      0.490000          0.125045E-03
      0.495000          0.122680E-03
      0.500000          0.120242E-03
