 I_abs(s)[cm^-1]/c[mg/ml]
       0.00000          0.144317E-01
      0.500000E-02      0.143618E-01
      0.100000E-01      0.141541E-01
      0.150000E-01      0.138145E-01
      0.200000E-01      0.133524E-01
      0.250000E-01      0.127805E-01
      0.300000E-01      0.121142E-01
      0.350000E-01      0.113707E-01
      0.400000E-01      0.105687E-01
      0.450000E-01      0.972733E-02
      0.500000E-01      0.886555E-02
      0.550000E-01      0.800146E-02
      0.600000E-01      0.715173E-02
      0.650000E-01      0.633110E-02
      0.700000E-01      0.555202E-02
      0.750000E-01      0.482442E-02
      0.800000E-01      0.415564E-02
      0.850000E-01      0.355045E-02
      0.900000E-01      0.301118E-02
      0.950000E-01      0.253799E-02
      0.100000          0.212913E-02
      0.105000          0.178130E-02
      0.110000          0.149005E-02
      0.115000          0.125007E-02
      0.120000          0.105559E-02
      0.125000          0.900669E-03
      0.130000          0.779436E-03
      0.135000          0.686316E-03
      0.140000          0.616172E-03
      0.145000          0.564408E-03
      0.150000          0.527019E-03
      0.155000          0.500609E-03
      0.160000          0.482364E-03
      0.165000          0.470017E-03
      0.170000          0.461781E-03
      0.175000          0.456290E-03
      0.180000          0.452522E-03
      0.185000          0.449737E-03
      0.190000          0.447409E-03
      0.195000          0.445177E-03
      0.200000          0.442794E-03
      0.205000          0.440095E-03
      0.210000          0.436963E-03
      0.215000          0.433313E-03
      0.220000          0.429075E-03
      0.225000          0.424185E-03
      0.230000          0.418586E-03
      0.235000          0.412222E-03
      0.240000          0.405046E-03
      0.245000          0.397022E-03
      0.250000          0.388132E-03
      0.255000          0.378380E-03
      0.260000          0.367799E-03
      0.265000          0.356455E-03
      0.270000          0.344445E-03
      0.275000          0.331899E-03
      0.280000          0.318975E-03
      0.285000          0.305854E-03
      0.290000          0.292733E-03
      0.295000          0.279810E-03
      0.300000          0.267279E-03
      0.305000          0.255316E-03
      0.310000          0.244072E-03
      0.315000          0.233662E-03
      0.320000          0.224162E-03
      0.325000          0.215603E-03
      0.330000          0.207978E-03
      0.335000          0.201238E-03
      0.340000          0.195304E-03
      0.345000          0.190073E-03
      0.350000          0.185427E-03
      0.355000          0.181244E-03
      0.360000          0.177407E-03
      0.365000          0.173812E-03
      0.370000          0.170376E-03
      0.375000          0.167038E-03
      0.380000          0.163759E-03
      0.385000          0.160528E-03
      0.390000          0.157351E-03
      0.395000          0.154250E-03
      0.400000          0.151258E-03
      0.405000          0.148410E-03
      0.410000          0.145737E-03
      0.415000          0.143264E-03
      0.420000          0.141005E-03
      0.425000          0.138958E-03
      0.430000          0.137107E-03
      0.435000          0.135421E-03
      0.440000          0.133860E-03
      0.445000          0.132373E-03
      0.450000          0.130905E-03
      0.455000          0.129401E-03
      0.460000          0.127810E-03
      0.465000          0.126086E-03
      0.470000          0.124195E-03
      0.475000          0.122115E-03
      0.480000          0.119836E-03
      0.485000          0.117363E-03
      0.490000          0.114710E-03
      0.495000          0.111906E-03
      0.500000          0.108989E-03
