 I_abs(s)[cm^-1]/c[mg/ml]
       0.00000          0.143369E-01
      0.500000E-02      0.142492E-01
      0.100000E-01      0.139894E-01
      0.150000E-01      0.135675E-01
      0.200000E-01      0.129995E-01
      0.250000E-01      0.123064E-01
      0.300000E-01      0.115130E-01
      0.350000E-01      0.106464E-01
      0.400000E-01      0.973460E-02
      0.450000E-01      0.880503E-02
      0.500000E-01      0.788314E-02
      0.550000E-01      0.699133E-02
      0.600000E-01      0.614812E-02
      0.650000E-01      0.536760E-02
      0.700000E-01      0.465930E-02
      0.750000E-01      0.402829E-02
      0.800000E-01      0.347556E-02
      0.850000E-01      0.299868E-02
      0.900000E-01      0.259250E-02
      0.950000E-01      0.224999E-02
      0.100000          0.196307E-02
      0.105000          0.172331E-02
      0.110000          0.152257E-02
      0.115000          0.135350E-02
      0.120000          0.120980E-02
      0.125000          0.108638E-02
      0.130000          0.979388E-03
      0.135000          0.886051E-03
      0.140000          0.804513E-03
      0.145000          0.733581E-03
      0.150000          0.672480E-03
      0.155000          0.620629E-03
      0.160000          0.577458E-03
      0.165000          0.542287E-03
      0.170000          0.514261E-03
      0.175000          0.492346E-03
      0.180000          0.475369E-03
      0.185000          0.462086E-03
      0.190000          0.451279E-03
      0.195000          0.441834E-03
      0.200000          0.432822E-03
      0.205000          0.423550E-03
      0.210000          0.413581E-03
      0.215000          0.402731E-03
      0.220000          0.391041E-03
      0.225000          0.378723E-03
      0.230000          0.366106E-03
      0.235000          0.353565E-03
      0.240000          0.341466E-03
      0.245000          0.330121E-03
      0.250000          0.319751E-03
      0.255000          0.310471E-03
      0.260000          0.302293E-03
      0.265000          0.295135E-03
      0.270000          0.288845E-03
      0.275000          0.283231E-03
      0.280000          0.278086E-03
      0.285000          0.273216E-03
      0.290000          0.268457E-03
      0.295000          0.263687E-03
      0.300000          0.258830E-03
      0.305000          0.253854E-03
      0.310000          0.248760E-03
      0.315000          0.243573E-03
      0.320000          0.238328E-03
      0.325000          0.233061E-03
      0.330000          0.227798E-03
      0.335000          0.222550E-03
      0.340000          0.217316E-03
      0.345000          0.212083E-03
      0.350000          0.206828E-03
      0.355000          0.201532E-03
      0.360000          0.196180E-03
      0.365000          0.190769E-03
      0.370000          0.185311E-03
      0.375000          0.179835E-03
      0.380000          0.174384E-03
      0.385000          0.169012E-03
      0.390000          0.163779E-03
      0.395000          0.158743E-03
      0.400000          0.153955E-03
      0.405000          0.149456E-03
      0.410000          0.145271E-03
      0.415000          0.141405E-03
      0.420000          0.137851E-03
      0.425000          0.134585E-03
      0.430000          0.131574E-03
      0.435000          0.128779E-03
      0.440000          0.126161E-03
      0.445000          0.123686E-03
      0.450000          0.121327E-03
      0.455000          0.119066E-03
      0.460000          0.116897E-03
      0.465000          0.114823E-03
      0.470000          0.112855E-03
      0.475000          0.111005E-03
      0.480000          0.109289E-03
      0.485000          0.107719E-03
      0.490000          0.106300E-03
      0.495000          0.105028E-03
      0.500000          0.103891E-03
