 I_abs(s)[cm^-1]/c[mg/ml]
       0.00000          0.143527E-01
      0.500000E-02      0.142769E-01
      0.100000E-01      0.140517E-01
      0.150000E-01      0.136839E-01
      0.200000E-01      0.131845E-01
      0.250000E-01      0.125682E-01
      0.300000E-01      0.118527E-01
      0.350000E-01      0.110579E-01
      0.400000E-01      0.102051E-01
      0.450000E-01      0.931635E-02
      0.500000E-01      0.841314E-02
      0.550000E-01      0.751587E-02
      0.600000E-01      0.664311E-02
      0.650000E-01      0.581096E-02
      0.700000E-01      0.503270E-02
      0.750000E-01      0.431846E-02
      0.800000E-01      0.367516E-02
      0.850000E-01      0.310659E-02
      0.900000E-01      0.261359E-02
      0.950000E-01      0.219438E-02
      0.100000          0.184501E-02
      0.105000          0.155978E-02
      0.110000          0.133179E-02
      0.115000          0.115339E-02
      0.120000          0.101670E-02
      0.125000          0.913939E-03
      0.130000          0.837837E-03
      0.135000          0.781841E-03
      0.140000          0.740307E-03
      0.145000          0.708578E-03
      0.150000          0.683005E-03
      0.155000          0.660890E-03
      0.160000          0.640395E-03
      0.165000          0.620403E-03
      0.170000          0.600370E-03
      0.175000          0.580173E-03
      0.180000          0.559961E-03
      0.185000          0.540024E-03
      0.190000          0.520695E-03
      0.195000          0.502267E-03
      0.200000          0.484947E-03
      0.205000          0.468831E-03
      0.210000          0.453902E-03
      0.215000          0.440049E-03
      0.220000          0.427088E-03
      0.225000          0.414801E-03
      0.230000          0.402962E-03
      0.235000          0.391370E-03
      0.240000          0.379869E-03
      0.245000          0.368363E-03
      0.250000          0.356818E-03
      0.255000          0.345263E-03
      0.260000          0.333773E-03
      0.265000          0.322462E-03
      0.270000          0.311458E-03
      0.275000          0.300891E-03
      0.280000          0.290875E-03
      0.285000          0.281494E-03
      0.290000          0.272798E-03
      0.295000          0.264799E-03
      0.300000          0.257469E-03
      0.305000          0.250752E-03
      0.310000          0.244565E-03
      0.315000          0.238814E-03
      0.320000          0.233402E-03
      0.325000          0.228238E-03
      0.330000          0.223248E-03
      0.335000          0.218376E-03
      0.340000          0.213591E-03
      0.345000          0.208883E-03
      0.350000          0.204264E-03
      0.355000          0.199760E-03
      0.360000          0.195410E-03
      0.365000          0.191251E-03
      0.370000          0.187320E-03
      0.375000          0.183646E-03
      0.380000          0.180241E-03
      0.385000          0.177106E-03
      0.390000          0.174222E-03
      0.395000          0.171558E-03
      0.400000          0.169069E-03
      0.405000          0.166703E-03
      0.410000          0.164402E-03
      0.415000          0.162112E-03
      0.420000          0.159783E-03
      0.425000          0.157372E-03
      0.430000          0.154852E-03
      0.435000          0.152209E-03
      0.440000          0.149440E-03
      0.445000          0.146561E-03
      0.450000          0.143594E-03
      0.455000          0.140574E-03
      0.460000          0.137541E-03
      0.465000          0.134536E-03
      0.470000          0.131601E-03
      0.475000          0.128775E-03
      0.480000          0.126089E-03
      0.485000          0.123568E-03
      0.490000          0.121228E-03
      0.495000          0.119077E-03
      0.500000          0.117116E-03
