 I_abs(s)[cm^-1]/c[mg/ml]
       0.00000          0.142818E-01
      0.500000E-02      0.142023E-01
      0.100000E-01      0.139663E-01
      0.150000E-01      0.135818E-01
      0.200000E-01      0.130610E-01
      0.250000E-01      0.124206E-01
      0.300000E-01      0.116803E-01
      0.350000E-01      0.108622E-01
      0.400000E-01      0.998952E-02
      0.450000E-01      0.908566E-02
      0.500000E-01      0.817322E-02
      0.550000E-01      0.727308E-02
      0.600000E-01      0.640367E-02
      0.650000E-01      0.558045E-02
      0.700000E-01      0.481558E-02
      0.750000E-01      0.411779E-02
      0.800000E-01      0.349248E-02
      0.850000E-01      0.294190E-02
      0.900000E-01      0.246560E-02
      0.950000E-01      0.206077E-02
      0.100000          0.172285E-02
      0.105000          0.144599E-02
      0.110000          0.122352E-02
      0.115000          0.104843E-02
      0.120000          0.913704E-03
      0.125000          0.812617E-03
      0.130000          0.738932E-03
      0.135000          0.687029E-03
      0.140000          0.651971E-03
      0.145000          0.629512E-03
      0.150000          0.616068E-03
      0.155000          0.608666E-03
      0.160000          0.604885E-03
      0.165000          0.602791E-03
      0.170000          0.600872E-03
      0.175000          0.597992E-03
      0.180000          0.593338E-03
      0.185000          0.586387E-03
      0.190000          0.576867E-03
      0.195000          0.564723E-03
      0.200000          0.550083E-03
      0.205000          0.533217E-03
      0.210000          0.514500E-03
      0.215000          0.494373E-03
      0.220000          0.473299E-03
      0.225000          0.451730E-03
      0.230000          0.430075E-03
      0.235000          0.408681E-03
      0.240000          0.387816E-03
      0.245000          0.367670E-03
      0.250000          0.348361E-03
      0.255000          0.329946E-03
      0.260000          0.312440E-03
      0.265000          0.295839E-03
      0.270000          0.280131E-03
      0.275000          0.265319E-03
      0.280000          0.251426E-03
      0.285000          0.238496E-03
      0.290000          0.226598E-03
      0.295000          0.215808E-03
      0.300000          0.206205E-03
      0.305000          0.197849E-03
      0.310000          0.190775E-03
      0.315000          0.184976E-03
      0.320000          0.180399E-03
      0.325000          0.176945E-03
      0.330000          0.174471E-03
      0.335000          0.172802E-03
      0.340000          0.171738E-03
      0.345000          0.171078E-03
      0.350000          0.170627E-03
      0.355000          0.170215E-03
      0.360000          0.169708E-03
      0.365000          0.169012E-03
      0.370000          0.168078E-03
      0.375000          0.166898E-03
      0.380000          0.165498E-03
      0.385000          0.163930E-03
      0.390000          0.162262E-03
      0.395000          0.160562E-03
      0.400000          0.158891E-03
      0.405000          0.157294E-03
      0.410000          0.155794E-03
      0.415000          0.154389E-03
      0.420000          0.153057E-03
      0.425000          0.151752E-03
      0.430000          0.150418E-03
      0.435000          0.148991E-03
      0.440000          0.147407E-03
      0.445000          0.145612E-03
      0.450000          0.143559E-03
      0.455000          0.141222E-03
      0.460000          0.138588E-03
      0.465000          0.135664E-03
      0.470000          0.132471E-03
      0.475000          0.129041E-03
      0.480000          0.125418E-03
      0.485000          0.121649E-03
      0.490000          0.117782E-03
      0.495000          0.113868E-03
      0.500000          0.109953E-03
