 I_abs(s)[cm^-1]/c[mg/ml]
       0.00000          0.142582E-01
      0.500000E-02      0.141752E-01
      0.100000E-01      0.139294E-01
      0.150000E-01      0.135297E-01
      0.200000E-01      0.129905E-01
      0.250000E-01      0.123308E-01
      0.300000E-01      0.115729E-01
      0.350000E-01      0.107415E-01
      0.400000E-01      0.986223E-02
      0.450000E-01      0.896035E-02
      0.500000E-01      0.805961E-02
      0.550000E-01      0.718128E-02
      0.600000E-01      0.634338E-02
      0.650000E-01      0.556019E-02
      0.700000E-01      0.484206E-02
      0.750000E-01      0.419541E-02
      0.800000E-01      0.362308E-02
      0.850000E-01      0.312467E-02
      0.900000E-01      0.269719E-02
      0.950000E-01      0.233566E-02
      0.100000          0.203372E-02
      0.105000          0.178427E-02
      0.110000          0.157994E-02
      0.115000          0.141358E-02
      0.120000          0.127849E-02
      0.125000          0.116870E-02
      0.130000          0.107901E-02
      0.135000          0.100508E-02
      0.140000          0.943313E-03
      0.145000          0.890854E-03
      0.150000          0.845430E-03
      0.155000          0.805270E-03
      0.160000          0.768998E-03
      0.165000          0.735554E-03
      0.170000          0.704116E-03
      0.175000          0.674060E-03
      0.180000          0.644917E-03
      0.185000          0.616353E-03
      0.190000          0.588154E-03
      0.195000          0.560211E-03
      0.200000          0.532514E-03
      0.205000          0.505132E-03
      0.210000          0.478208E-03
      0.215000          0.451937E-03
      0.220000          0.426550E-03
      0.225000          0.402297E-03
      0.230000          0.379425E-03
      0.235000          0.358165E-03
      0.240000          0.338710E-03
      0.245000          0.321206E-03
      0.250000          0.305739E-03
      0.255000          0.292325E-03
      0.260000          0.280908E-03
      0.265000          0.271360E-03
      0.270000          0.263488E-03
      0.275000          0.257038E-03
      0.280000          0.251715E-03
      0.285000          0.247197E-03
      0.290000          0.243156E-03
      0.295000          0.239278E-03
      0.300000          0.235285E-03
      0.305000          0.230952E-03
      0.310000          0.226118E-03
      0.315000          0.220694E-03
      0.320000          0.214667E-03
      0.325000          0.208090E-03
      0.330000          0.201076E-03
      0.335000          0.193779E-03
      0.340000          0.186379E-03
      0.345000          0.179063E-03
      0.350000          0.172005E-03
      0.355000          0.165359E-03
      0.360000          0.159242E-03
      0.365000          0.153734E-03
      0.370000          0.148876E-03
      0.375000          0.144673E-03
      0.380000          0.141101E-03
      0.385000          0.138118E-03
      0.390000          0.135668E-03
      0.395000          0.133688E-03
      0.400000          0.132118E-03
      0.405000          0.130898E-03
      0.410000          0.129969E-03
      0.415000          0.129278E-03
      0.420000          0.128765E-03
      0.425000          0.128370E-03
      0.430000          0.128027E-03
      0.435000          0.127666E-03
      0.440000          0.127214E-03
      0.445000          0.126599E-03
      0.450000          0.125759E-03
      0.455000          0.124640E-03
      0.460000          0.123210E-03
      0.465000          0.121461E-03
      0.470000          0.119408E-03
      0.475000          0.117093E-03
      0.480000          0.114581E-03
      0.485000          0.111951E-03
      0.490000          0.109295E-03
      0.495000          0.106705E-03
      0.500000          0.104263E-03
