 I_abs(s)[cm^-1]/c[mg/ml]
       0.00000          0.146701E-01
      0.500000E-02      0.146153E-01
      0.100000E-01      0.144519E-01
      0.150000E-01      0.141833E-01
      0.200000E-01      0.138149E-01
      0.250000E-01      0.133541E-01
      0.300000E-01      0.128099E-01
      0.350000E-01      0.121930E-01
      0.400000E-01      0.115149E-01
      0.450000E-01      0.107883E-01
      0.500000E-01      0.100261E-01
      0.550000E-01      0.924136E-02
      0.600000E-01      0.844704E-02
      0.650000E-01      0.765544E-02
      0.700000E-01      0.687809E-02
      0.750000E-01      0.612541E-02
      0.800000E-01      0.540655E-02
      0.850000E-01      0.472924E-02
      0.900000E-01      0.409965E-02
      0.950000E-01      0.352239E-02
      0.100000          0.300049E-02
      0.105000          0.253544E-02
      0.110000          0.212735E-02
      0.115000          0.177498E-02
      0.120000          0.147602E-02
      0.125000          0.122716E-02
      0.130000          0.102438E-02
      0.135000          0.863079E-03
      0.140000          0.738316E-03
      0.145000          0.644978E-03
      0.150000          0.577959E-03
      0.155000          0.532306E-03
      0.160000          0.503356E-03
      0.165000          0.486832E-03
      0.170000          0.478925E-03
      0.175000          0.476341E-03
      0.180000          0.476331E-03
      0.185000          0.476692E-03
      0.190000          0.475750E-03
      0.195000          0.472330E-03
      0.200000          0.465706E-03
      0.205000          0.455547E-03
      0.210000          0.441854E-03
      0.215000          0.424898E-03
      0.220000          0.405149E-03
      0.225000          0.383221E-03
      0.230000          0.359809E-03
      0.235000          0.335642E-03
      0.240000          0.311433E-03
      0.245000          0.287852E-03
      0.250000          0.265489E-03
      0.255000          0.244840E-03
      0.260000          0.226293E-03
      0.265000          0.210121E-03
      0.270000          0.196485E-03
      0.275000          0.185436E-03
      0.280000          0.176929E-03
      0.285000          0.170830E-03
      0.290000          0.166934E-03
      0.295000          0.164980E-03
      0.300000          0.164667E-03
      0.305000          0.165667E-03
      0.310000          0.167645E-03
      0.315000          0.170266E-03
      0.320000          0.173214E-03
      0.325000          0.176195E-03
      0.330000          0.178950E-03
      0.335000          0.181260E-03
      0.340000          0.182946E-03
      0.345000          0.183877E-03
      0.350000          0.183965E-03
      0.355000          0.183165E-03
      0.360000          0.181476E-03
      0.365000          0.178928E-03
      0.370000          0.175587E-03
      0.375000          0.171542E-03
      0.380000          0.166903E-03
      0.385000          0.161792E-03
      0.390000          0.156341E-03
      0.395000          0.150682E-03
      0.400000          0.144944E-03
      0.405000          0.139248E-03
      0.410000          0.133705E-03
      0.415000          0.128409E-03
      0.420000          0.123441E-03
      0.425000          0.118860E-03
      0.430000          0.114712E-03
      0.435000          0.111023E-03
      0.440000          0.107802E-03
      0.445000          0.105043E-03
      0.450000          0.102731E-03
      0.455000          0.100835E-03
      0.460000          0.993194E-04
      0.465000          0.981417E-04
      0.470000          0.972556E-04
      0.475000          0.966136E-04
      0.480000          0.961683E-04
      0.485000          0.958745E-04
      0.490000          0.956897E-04
      0.495000          0.955756E-04
      0.500000          0.954983E-04
