 I_abs(s)[cm^-1]/c[mg/ml]
       0.00000          0.138986E-01
      0.500000E-02      0.138123E-01
      0.100000E-01      0.135568E-01
      0.150000E-01      0.131425E-01
      0.200000E-01      0.125860E-01
      0.250000E-01      0.119088E-01
      0.300000E-01      0.111363E-01
      0.350000E-01      0.102963E-01
      0.400000E-01      0.941677E-02
      0.450000E-01      0.852522E-02
      0.500000E-01      0.764658E-02
      0.550000E-01      0.680238E-02
      0.600000E-01      0.600985E-02
      0.650000E-01      0.528152E-02
      0.700000E-01      0.462509E-02
      0.750000E-01      0.404372E-02
      0.800000E-01      0.353653E-02
      0.850000E-01      0.309939E-02
      0.900000E-01      0.272580E-02
      0.950000E-01      0.240779E-02
      0.100000          0.213682E-02
      0.105000          0.190452E-02
      0.110000          0.170338E-02
      0.115000          0.152704E-02
      0.120000          0.137064E-02
      0.125000          0.123074E-02
      0.130000          0.110523E-02
      0.135000          0.993094E-03
      0.140000          0.894049E-03
      0.145000          0.808215E-03
      0.150000          0.735784E-03
      0.155000          0.676743E-03
      0.160000          0.630682E-03
      0.165000          0.596692E-03
      0.170000          0.573351E-03
      0.175000          0.558795E-03
      0.180000          0.550846E-03
      0.185000          0.547179E-03
      0.190000          0.545506E-03
      0.195000          0.543745E-03
      0.200000          0.540162E-03
      0.205000          0.533470E-03
      0.210000          0.522877E-03
      0.215000          0.508085E-03
      0.220000          0.489247E-03
      0.225000          0.466883E-03
      0.230000          0.441782E-03
      0.235000          0.414884E-03
      0.240000          0.387179E-03
      0.245000          0.359606E-03
      0.250000          0.332981E-03
      0.255000          0.307951E-03
      0.260000          0.284966E-03
      0.265000          0.264280E-03
      0.270000          0.245973E-03
      0.275000          0.229979E-03
      0.280000          0.216125E-03
      0.285000          0.204174E-03
      0.290000          0.193862E-03
      0.295000          0.184924E-03
      0.300000          0.177122E-03
      0.305000          0.170257E-03
      0.310000          0.164170E-03
      0.315000          0.158747E-03
      0.320000          0.153910E-03
      0.325000          0.149613E-03
      0.330000          0.145826E-03
      0.335000          0.142536E-03
      0.340000          0.139735E-03
      0.345000          0.137418E-03
      0.350000          0.135579E-03
      0.355000          0.134208E-03
      0.360000          0.133293E-03
      0.365000          0.132818E-03
      0.370000          0.132758E-03
      0.375000          0.133085E-03
      0.380000          0.133758E-03
      0.385000          0.134728E-03
      0.390000          0.135933E-03
      0.395000          0.137303E-03
      0.400000          0.138752E-03
      0.405000          0.140192E-03
      0.410000          0.141526E-03
      0.415000          0.142661E-03
      0.420000          0.143510E-03
      0.425000          0.143998E-03
      0.430000          0.144067E-03
      0.435000          0.143681E-03
      0.440000          0.142829E-03
      0.445000          0.141523E-03
      0.450000          0.139798E-03
      0.455000          0.137709E-03
      0.460000          0.135325E-03
      0.465000          0.132724E-03
      0.470000          0.129986E-03
      0.475000          0.127185E-03
      0.480000          0.124388E-03
      0.485000          0.121646E-03
      0.490000          0.118994E-03
      0.495000          0.116448E-03
      0.500000          0.114009E-03
