 I_abs(s)[cm^-1]/c[mg/ml]
       0.00000          0.137206E-01
      0.500000E-02      0.136125E-01
      0.100000E-01      0.132938E-01
      0.150000E-01      0.127800E-01
      0.200000E-01      0.120963E-01
      0.250000E-01      0.112745E-01
      0.300000E-01      0.103517E-01
      0.350000E-01      0.936666E-02
      0.400000E-01      0.835788E-02
      0.450000E-01      0.736073E-02
      0.500000E-01      0.640567E-02
      0.550000E-01      0.551681E-02
      0.600000E-01      0.471123E-02
      0.650000E-01      0.399893E-02
      0.700000E-01      0.338332E-02
      0.750000E-01      0.286218E-02
      0.800000E-01      0.242902E-02
      0.850000E-01      0.207437E-02
      0.900000E-01      0.178723E-02
      0.950000E-01      0.155625E-02
      0.100000          0.137067E-02
      0.105000          0.122102E-02
      0.110000          0.109943E-02
      0.115000          0.999778E-03
      0.120000          0.917500E-03
      0.125000          0.849386E-03
      0.130000          0.793228E-03
      0.135000          0.747491E-03
      0.140000          0.711019E-03
      0.145000          0.682812E-03
      0.150000          0.661881E-03
      0.155000          0.647175E-03
      0.160000          0.637565E-03
      0.165000          0.631871E-03
      0.170000          0.628901E-03
      0.175000          0.627498E-03
      0.180000          0.626579E-03
      0.185000          0.625165E-03
      0.190000          0.622403E-03
      0.195000          0.617586E-03
      0.200000          0.610164E-03
      0.205000          0.599767E-03
      0.210000          0.586217E-03
      0.215000          0.569549E-03
      0.220000          0.550010E-03
      0.225000          0.528055E-03
      0.230000          0.504322E-03
      0.235000          0.479580E-03
      0.240000          0.454672E-03
      0.245000          0.430433E-03
      0.250000          0.407613E-03
      0.255000          0.386806E-03
      0.260000          0.368394E-03
      0.265000          0.352520E-03
      0.270000          0.339086E-03
      0.275000          0.327784E-03
      0.280000          0.318151E-03
      0.285000          0.309640E-03
      0.290000          0.301699E-03
      0.295000          0.293840E-03
      0.300000          0.285699E-03
      0.305000          0.277067E-03
      0.310000          0.267906E-03
      0.315000          0.258328E-03
      0.320000          0.248562E-03
      0.325000          0.238906E-03
      0.330000          0.229673E-03
      0.335000          0.221146E-03
      0.340000          0.213535E-03
      0.345000          0.206957E-03
      0.350000          0.201428E-03
      0.355000          0.196873E-03
      0.360000          0.193147E-03
      0.365000          0.190058E-03
      0.370000          0.187403E-03
      0.375000          0.184988E-03
      0.380000          0.182649E-03
      0.385000          0.180261E-03
      0.390000          0.177745E-03
      0.395000          0.175056E-03
      0.400000          0.172184E-03
      0.405000          0.169134E-03
      0.410000          0.165925E-03
      0.415000          0.162579E-03
      0.420000          0.159122E-03
      0.425000          0.155579E-03
      0.430000          0.151979E-03
      0.435000          0.148357E-03
      0.440000          0.144756E-03
      0.445000          0.141225E-03
      0.450000          0.137815E-03
      0.455000          0.134579E-03
      0.460000          0.131561E-03
      0.465000          0.128791E-03
      0.470000          0.126280E-03
      0.475000          0.124019E-03
      0.480000          0.121980E-03
      0.485000          0.120118E-03
      0.490000          0.118382E-03
      0.495000          0.116719E-03
      0.500000          0.115087E-03
