 I_abs(s)[cm^-1]/c[mg/ml]
       0.00000          0.147900E-01
      0.500000E-02      0.147163E-01
      0.100000E-01      0.144974E-01
      0.150000E-01      0.141406E-01
      0.200000E-01      0.136574E-01
      0.250000E-01      0.130630E-01
      0.300000E-01      0.123755E-01
      0.350000E-01      0.116150E-01
      0.400000E-01      0.108025E-01
      0.450000E-01      0.995898E-02
      0.500000E-01      0.910448E-02
      0.550000E-01      0.825735E-02
      0.600000E-01      0.743364E-02
      0.650000E-01      0.664665E-02
      0.700000E-01      0.590674E-02
      0.750000E-01      0.522132E-02
      0.800000E-01      0.459499E-02
      0.850000E-01      0.402980E-02
      0.900000E-01      0.352562E-02
      0.950000E-01      0.308058E-02
      0.100000          0.269148E-02
      0.105000          0.235424E-02
      0.110000          0.206420E-02
      0.115000          0.181649E-02
      0.120000          0.160623E-02
      0.125000          0.142873E-02
      0.130000          0.127955E-02
      0.135000          0.115461E-02
      0.140000          0.105017E-02
      0.145000          0.962857E-03
      0.150000          0.889646E-03
      0.155000          0.827841E-03
      0.160000          0.775063E-03
      0.165000          0.729246E-03
      0.170000          0.688625E-03
      0.175000          0.651741E-03
      0.180000          0.617425E-03
      0.185000          0.584797E-03
      0.190000          0.553240E-03
      0.195000          0.522376E-03
      0.200000          0.492032E-03
      0.205000          0.462198E-03
      0.210000          0.432983E-03
      0.215000          0.404571E-03
      0.220000          0.377184E-03
      0.225000          0.351048E-03
      0.230000          0.326366E-03
      0.235000          0.303306E-03
      0.240000          0.281991E-03
      0.245000          0.262500E-03
      0.250000          0.244873E-03
      0.255000          0.229118E-03
      0.260000          0.215220E-03
      0.265000          0.203145E-03
      0.270000          0.192847E-03
      0.275000          0.184265E-03
      0.280000          0.177326E-03
      0.285000          0.171936E-03
      0.290000          0.167977E-03
      0.295000          0.165307E-03
      0.300000          0.163754E-03
      0.305000          0.163119E-03
      0.310000          0.163182E-03
      0.315000          0.163708E-03
      0.320000          0.164458E-03
      0.325000          0.165204E-03
      0.330000          0.165737E-03
      0.335000          0.165878E-03
      0.340000          0.165492E-03
      0.345000          0.164489E-03
      0.350000          0.162826E-03
      0.355000          0.160509E-03
      0.360000          0.157587E-03
      0.365000          0.154140E-03
      0.370000          0.150276E-03
      0.375000          0.146118E-03
      0.380000          0.141795E-03
      0.385000          0.137430E-03
      0.390000          0.133137E-03
      0.395000          0.129015E-03
      0.400000          0.125141E-03
      0.405000          0.121575E-03
      0.410000          0.118353E-03
      0.415000          0.115497E-03
      0.420000          0.113009E-03
      0.425000          0.110881E-03
      0.430000          0.109094E-03
      0.435000          0.107619E-03
      0.440000          0.106424E-03
      0.445000          0.105471E-03
      0.450000          0.104719E-03
      0.455000          0.104127E-03
      0.460000          0.103651E-03
      0.465000          0.103249E-03
      0.470000          0.102881E-03
      0.475000          0.102508E-03
      0.480000          0.102096E-03
      0.485000          0.101616E-03
      0.490000          0.101047E-03
      0.495000          0.100375E-03
      0.500000          0.995921E-04
