 I_abs(s)[cm^-1]/c[mg/ml]
       0.00000          0.142267E-01
      0.500000E-02      0.141593E-01
      0.100000E-01      0.139590E-01
      0.150000E-01      0.136319E-01
      0.200000E-01      0.131875E-01
      0.250000E-01      0.126387E-01
      0.300000E-01      0.120007E-01
      0.350000E-01      0.112910E-01
      0.400000E-01      0.105280E-01
      0.450000E-01      0.973042E-02
      0.500000E-01      0.891669E-02
      0.550000E-01      0.810413E-02
      0.600000E-01      0.730840E-02
      0.650000E-01      0.654303E-02
      0.700000E-01      0.581915E-02
      0.750000E-01      0.514526E-02
      0.800000E-01      0.452726E-02
      0.850000E-01      0.396855E-02
      0.900000E-01      0.347021E-02
      0.950000E-01      0.303134E-02
      0.100000          0.264941E-02
      0.105000          0.232060E-02
      0.110000          0.204026E-02
      0.115000          0.180320E-02
      0.120000          0.160403E-02
      0.125000          0.143748E-02
      0.130000          0.129853E-02
      0.135000          0.118260E-02
      0.140000          0.108566E-02
      0.145000          0.100419E-02
      0.150000          0.935268E-03
      0.155000          0.876455E-03
      0.160000          0.825778E-03
      0.165000          0.781650E-03
      0.170000          0.742794E-03
      0.175000          0.708179E-03
      0.180000          0.676965E-03
      0.185000          0.648453E-03
      0.190000          0.622050E-03
      0.195000          0.597253E-03
      0.200000          0.573629E-03
      0.205000          0.550813E-03
      0.210000          0.528507E-03
      0.215000          0.506478E-03
      0.220000          0.484559E-03
      0.225000          0.462648E-03
      0.230000          0.440704E-03
      0.235000          0.418740E-03
      0.240000          0.396818E-03
      0.245000          0.375033E-03
      0.250000          0.353508E-03
      0.255000          0.332380E-03
      0.260000          0.311790E-03
      0.265000          0.291876E-03
      0.270000          0.272768E-03
      0.275000          0.254579E-03
      0.280000          0.237405E-03
      0.285000          0.221323E-03
      0.290000          0.206392E-03
      0.295000          0.192651E-03
      0.300000          0.180122E-03
      0.305000          0.168812E-03
      0.310000          0.158713E-03
      0.315000          0.149805E-03
      0.320000          0.142053E-03
      0.325000          0.135413E-03
      0.330000          0.129828E-03
      0.335000          0.125234E-03
      0.340000          0.121555E-03
      0.345000          0.118710E-03
      0.350000          0.116609E-03
      0.355000          0.115160E-03
      0.360000          0.114268E-03
      0.365000          0.113839E-03
      0.370000          0.113780E-03
      0.375000          0.114004E-03
      0.380000          0.114431E-03
      0.385000          0.114988E-03
      0.390000          0.115614E-03
      0.395000          0.116257E-03
      0.400000          0.116876E-03
      0.405000          0.117438E-03
      0.410000          0.117923E-03
      0.415000          0.118314E-03
      0.420000          0.118601E-03
      0.425000          0.118779E-03
      0.430000          0.118845E-03
      0.435000          0.118794E-03
      0.440000          0.118622E-03
      0.445000          0.118323E-03
      0.450000          0.117888E-03
      0.455000          0.117308E-03
      0.460000          0.116569E-03
      0.465000          0.115660E-03
      0.470000          0.114568E-03
      0.475000          0.113284E-03
      0.480000          0.111802E-03
      0.485000          0.110120E-03
      0.490000          0.108243E-03
      0.495000          0.106181E-03
      0.500000          0.103953E-03
