 I_abs(s)[cm^-1]/c[mg/ml]
       0.00000          0.134901E-01
      0.500000E-02      0.133772E-01
      0.100000E-01      0.130449E-01
      0.150000E-01      0.125113E-01
      0.200000E-01      0.118048E-01
      0.250000E-01      0.109618E-01
      0.300000E-01      0.100235E-01
      0.350000E-01      0.903253E-02
      0.400000E-01      0.803010E-02
      0.450000E-01      0.705286E-02
      0.500000E-01      0.613089E-02
      0.550000E-01      0.528638E-02
      0.600000E-01      0.453317E-02
      0.650000E-01      0.387713E-02
      0.700000E-01      0.331719E-02
      0.750000E-01      0.284689E-02
      0.800000E-01      0.245616E-02
      0.850000E-01      0.213309E-02
      0.900000E-01      0.186552E-02
      0.950000E-01      0.164227E-02
      0.100000          0.145399E-02
      0.105000          0.129346E-02
      0.110000          0.115564E-02
      0.115000          0.103733E-02
      0.120000          0.936638E-03
      0.125000          0.852459E-03
      0.130000          0.783934E-03
      0.135000          0.730056E-03
      0.140000          0.689435E-03
      0.145000          0.660235E-03
      0.150000          0.640246E-03
      0.155000          0.627064E-03
      0.160000          0.618308E-03
      0.165000          0.611833E-03
      0.170000          0.605896E-03
      0.175000          0.599248E-03
      0.180000          0.591144E-03
      0.185000          0.581294E-03
      0.190000          0.569753E-03
      0.195000          0.556801E-03
      0.200000          0.542820E-03
      0.205000          0.528196E-03
      0.210000          0.513257E-03
      0.215000          0.498246E-03
      0.220000          0.483325E-03
      0.225000          0.468599E-03
      0.230000          0.454143E-03
      0.235000          0.440030E-03
      0.240000          0.426339E-03
      0.245000          0.413155E-03
      0.250000          0.400551E-03
      0.255000          0.388568E-03
      0.260000          0.377194E-03
      0.265000          0.366356E-03
      0.270000          0.355923E-03
      0.275000          0.345723E-03
      0.280000          0.335575E-03
      0.285000          0.325324E-03
      0.290000          0.314878E-03
      0.295000          0.304228E-03
      0.300000          0.293465E-03
      0.305000          0.282769E-03
      0.310000          0.272386E-03
      0.315000          0.262591E-03
      0.320000          0.253643E-03
      0.325000          0.245750E-03
      0.330000          0.239031E-03
      0.335000          0.233501E-03
      0.340000          0.229072E-03
      0.345000          0.225565E-03
      0.350000          0.222741E-03
      0.355000          0.220337E-03
      0.360000          0.218099E-03
      0.365000          0.215819E-03
      0.370000          0.213350E-03
      0.375000          0.210618E-03
      0.380000          0.207618E-03
      0.385000          0.204399E-03
      0.390000          0.201040E-03
      0.395000          0.197633E-03
      0.400000          0.194258E-03
      0.405000          0.190968E-03
      0.410000          0.187782E-03
      0.415000          0.184687E-03
      0.420000          0.181644E-03
      0.425000          0.178599E-03
      0.430000          0.175495E-03
      0.435000          0.172286E-03
      0.440000          0.168942E-03
      0.445000          0.165455E-03
      0.450000          0.161835E-03
      0.455000          0.158105E-03
      0.460000          0.154296E-03
      0.465000          0.150437E-03
      0.470000          0.146549E-03
      0.475000          0.142644E-03
      0.480000          0.138720E-03
      0.485000          0.134767E-03
      0.490000          0.130770E-03
      0.495000          0.126713E-03
      0.500000          0.122587E-03
