 I_abs(s)[cm^-1]/c[mg/ml]
       0.00000          0.132464E-01
      0.500000E-02      0.131140E-01
      0.100000E-01      0.127250E-01
      0.150000E-01      0.121035E-01
      0.200000E-01      0.112869E-01
      0.250000E-01      0.103226E-01
      0.300000E-01      0.926397E-02
      0.350000E-01      0.816531E-02
      0.400000E-01      0.707782E-02
      0.450000E-01      0.604573E-02
      0.500000E-01      0.510350E-02
      0.550000E-01      0.427432E-02
      0.600000E-01      0.356983E-02
      0.650000E-01      0.299096E-02
      0.700000E-01      0.252978E-02
      0.750000E-01      0.217188E-02
      0.800000E-01      0.189911E-02
      0.850000E-01      0.169215E-02
      0.900000E-01      0.153267E-02
      0.950000E-01      0.140506E-02
      0.100000          0.129728E-02
      0.105000          0.120126E-02
      0.110000          0.111251E-02
      0.115000          0.102951E-02
      0.120000          0.952698E-03
      0.125000          0.883579E-03
      0.130000          0.823802E-03
      0.135000          0.774544E-03
      0.140000          0.736127E-03
      0.145000          0.707920E-03
      0.150000          0.688457E-03
      0.155000          0.675710E-03
      0.160000          0.667428E-03
      0.165000          0.661469E-03
      0.170000          0.656056E-03
      0.175000          0.649939E-03
      0.180000          0.642431E-03
      0.185000          0.633355E-03
      0.190000          0.622918E-03
      0.195000          0.611553E-03
      0.200000          0.599764E-03
      0.205000          0.588002E-03
      0.210000          0.576587E-03
      0.215000          0.565678E-03
      0.220000          0.555284E-03
      0.225000          0.545310E-03
      0.230000          0.535605E-03
      0.235000          0.526014E-03
      0.240000          0.516410E-03
      0.245000          0.506710E-03
      0.250000          0.496872E-03
      0.255000          0.486880E-03
      0.260000          0.476721E-03
      0.265000          0.466365E-03
      0.270000          0.455760E-03
      0.275000          0.444826E-03
      0.280000          0.433473E-03
      0.285000          0.421613E-03
      0.290000          0.409185E-03
      0.295000          0.396170E-03
      0.300000          0.382605E-03
      0.305000          0.368583E-03
      0.310000          0.354243E-03
      0.315000          0.339761E-03
      0.320000          0.325328E-03
      0.325000          0.311131E-03
      0.330000          0.297342E-03
      0.335000          0.284104E-03
      0.340000          0.271528E-03
      0.345000          0.259696E-03
      0.350000          0.248662E-03
      0.355000          0.238461E-03
      0.360000          0.229108E-03
      0.365000          0.220607E-03
      0.370000          0.212945E-03
      0.375000          0.206092E-03
      0.380000          0.200002E-03
      0.385000          0.194605E-03
      0.390000          0.189815E-03
      0.395000          0.185533E-03
      0.400000          0.181652E-03
      0.405000          0.178072E-03
      0.410000          0.174708E-03
      0.415000          0.171500E-03
      0.420000          0.168418E-03
      0.425000          0.165461E-03
      0.430000          0.162655E-03
      0.435000          0.160038E-03
      0.440000          0.157652E-03
      0.445000          0.155527E-03
      0.450000          0.153670E-03
      0.455000          0.152053E-03
      0.460000          0.150616E-03
      0.465000          0.149269E-03
      0.470000          0.147897E-03
      0.475000          0.146379E-03
      0.480000          0.144600E-03
      0.485000          0.142465E-03
      0.490000          0.139916E-03
      0.495000          0.136932E-03
      0.500000          0.133536E-03
