 I_abs(s)[cm^-1]/c[mg/ml]
       0.00000          0.147420E-01
      0.500000E-02      0.146841E-01
      0.100000E-01      0.145115E-01
      0.150000E-01      0.142283E-01
      0.200000E-01      0.138407E-01
      0.250000E-01      0.133573E-01
      0.300000E-01      0.127886E-01
      0.350000E-01      0.121467E-01
      0.400000E-01      0.114447E-01
      0.450000E-01      0.106968E-01
      0.500000E-01      0.991725E-02
      0.550000E-01      0.912030E-02
      0.600000E-01      0.831968E-02
      0.650000E-01      0.752821E-02
      0.700000E-01      0.675753E-02
      0.750000E-01      0.601783E-02
      0.800000E-01      0.531765E-02
      0.850000E-01      0.466378E-02
      0.900000E-01      0.406120E-02
      0.950000E-01      0.351312E-02
      0.100000          0.302107E-02
      0.105000          0.258501E-02
      0.110000          0.220355E-02
      0.115000          0.187413E-02
      0.120000          0.159329E-02
      0.125000          0.135687E-02
      0.130000          0.116030E-02
      0.135000          0.998749E-03
      0.140000          0.867404E-03
      0.145000          0.761591E-03
      0.150000          0.676939E-03
      0.155000          0.609476E-03
      0.160000          0.555699E-03
      0.165000          0.512616E-03
      0.170000          0.477747E-03
      0.175000          0.449106E-03
      0.180000          0.425159E-03
      0.185000          0.404773E-03
      0.190000          0.387145E-03
      0.195000          0.371739E-03
      0.200000          0.358214E-03
      0.205000          0.346363E-03
      0.210000          0.336056E-03
      0.215000          0.327196E-03
      0.220000          0.319686E-03
      0.225000          0.313405E-03
      0.230000          0.308195E-03
      0.235000          0.303861E-03
      0.240000          0.300174E-03
      0.245000          0.296883E-03
      0.250000          0.293729E-03
      0.255000          0.290461E-03
      0.260000          0.286852E-03
      0.265000          0.282709E-03
      0.270000          0.277889E-03
      0.275000          0.272303E-03
      0.280000          0.265918E-03
      0.285000          0.258756E-03
      0.290000          0.250891E-03
      0.295000          0.242440E-03
      0.300000          0.233553E-03
      0.305000          0.224400E-03
      0.310000          0.215163E-03
      0.315000          0.206023E-03
      0.320000          0.197150E-03
      0.325000          0.188695E-03
      0.330000          0.180785E-03
      0.335000          0.173517E-03
      0.340000          0.166957E-03
      0.345000          0.161143E-03
      0.350000          0.156083E-03
      0.355000          0.151758E-03
      0.360000          0.148132E-03
      0.365000          0.145149E-03
      0.370000          0.142745E-03
      0.375000          0.140847E-03
      0.380000          0.139379E-03
      0.385000          0.138265E-03
      0.390000          0.137433E-03
      0.395000          0.136816E-03
      0.400000          0.136352E-03
      0.405000          0.135983E-03
      0.410000          0.135662E-03
      0.415000          0.135343E-03
      0.420000          0.134988E-03
      0.425000          0.134563E-03
      0.430000          0.134039E-03
      0.435000          0.133390E-03
      0.440000          0.132596E-03
      0.445000          0.131640E-03
      0.450000          0.130513E-03
      0.455000          0.129207E-03
      0.460000          0.127723E-03
      0.465000          0.126068E-03
      0.470000          0.124253E-03
      0.475000          0.122297E-03
      0.480000          0.120226E-03
      0.485000          0.118068E-03
      0.490000          0.115857E-03
      0.495000          0.113629E-03
      0.500000          0.111420E-03
