 I_abs(s)[cm^-1]/c[mg/ml]
       0.00000          0.143527E-01
      0.500000E-02      0.142737E-01
      0.100000E-01      0.140394E-01
      0.150000E-01      0.136570E-01
      0.200000E-01      0.131388E-01
      0.250000E-01      0.125007E-01
      0.300000E-01      0.117620E-01
      0.350000E-01      0.109441E-01
      0.400000E-01      0.100700E-01
      0.450000E-01      0.916271E-02
      0.500000E-01      0.824487E-02
      0.550000E-01      0.733749E-02
      0.600000E-01      0.645937E-02
      0.650000E-01      0.562651E-02
      0.700000E-01      0.485175E-02
      0.750000E-01      0.414458E-02
      0.800000E-01      0.351112E-02
      0.850000E-01      0.295430E-02
      0.900000E-01      0.247415E-02
      0.950000E-01      0.206820E-02
      0.100000          0.173195E-02
      0.105000          0.145936E-02
      0.110000          0.124338E-02
      0.115000          0.107640E-02
      0.120000          0.950674E-03
      0.125000          0.858659E-03
      0.130000          0.793315E-03
      0.135000          0.748291E-03
      0.140000          0.718052E-03
      0.145000          0.697939E-03
      0.150000          0.684165E-03
      0.155000          0.673779E-03
      0.160000          0.664584E-03
      0.165000          0.655047E-03
      0.170000          0.644189E-03
      0.175000          0.631481E-03
      0.180000          0.616738E-03
      0.185000          0.600028E-03
      0.190000          0.581593E-03
      0.195000          0.561777E-03
      0.200000          0.540975E-03
      0.205000          0.519593E-03
      0.210000          0.498011E-03
      0.215000          0.476571E-03
      0.220000          0.455557E-03
      0.225000          0.435196E-03
      0.230000          0.415650E-03
      0.235000          0.397025E-03
      0.240000          0.379373E-03
      0.245000          0.362703E-03
      0.250000          0.346987E-03
      0.255000          0.332170E-03
      0.260000          0.318183E-03
      0.265000          0.304944E-03
      0.270000          0.292375E-03
      0.275000          0.280402E-03
      0.280000          0.268961E-03
      0.285000          0.258004E-03
      0.290000          0.247502E-03
      0.295000          0.237441E-03
      0.300000          0.227826E-03
      0.305000          0.218678E-03
      0.310000          0.210031E-03
      0.315000          0.201930E-03
      0.320000          0.194425E-03
      0.325000          0.187570E-03
      0.330000          0.181416E-03
      0.335000          0.176008E-03
      0.340000          0.171383E-03
      0.345000          0.167562E-03
      0.350000          0.164551E-03
      0.355000          0.162339E-03
      0.360000          0.160893E-03
      0.365000          0.160160E-03
      0.370000          0.160069E-03
      0.375000          0.160526E-03
      0.380000          0.161425E-03
      0.385000          0.162643E-03
      0.390000          0.164051E-03
      0.395000          0.165513E-03
      0.400000          0.166893E-03
      0.405000          0.168063E-03
      0.410000          0.168902E-03
      0.415000          0.169306E-03
      0.420000          0.169191E-03
      0.425000          0.168496E-03
      0.430000          0.167184E-03
      0.435000          0.165246E-03
      0.440000          0.162701E-03
      0.445000          0.159593E-03
      0.450000          0.155988E-03
      0.455000          0.151974E-03
      0.460000          0.147654E-03
      0.465000          0.143141E-03
      0.470000          0.138550E-03
      0.475000          0.133999E-03
      0.480000          0.129593E-03
      0.485000          0.125428E-03
      0.490000          0.121582E-03
      0.495000          0.118111E-03
      0.500000          0.115049E-03
