 I_abs(s)[cm^-1]/c[mg/ml]
       0.00000          0.141013E-01
      0.500000E-02      0.140140E-01
      0.100000E-01      0.137557E-01
      0.150000E-01      0.133370E-01
      0.200000E-01      0.127751E-01
      0.250000E-01      0.120921E-01
      0.300000E-01      0.113140E-01
      0.350000E-01      0.104692E-01
      0.400000E-01      0.958638E-02
      0.450000E-01      0.869326E-02
      0.500000E-01      0.781505E-02
      0.550000E-01      0.697327E-02
      0.600000E-01      0.618500E-02
      0.650000E-01      0.546241E-02
      0.700000E-01      0.481278E-02
      0.750000E-01      0.423873E-02
      0.800000E-01      0.373886E-02
      0.850000E-01      0.330851E-02
      0.900000E-01      0.294069E-02
      0.950000E-01      0.262702E-02
      0.100000          0.235861E-02
      0.105000          0.212681E-02
      0.110000          0.192382E-02
      0.115000          0.174308E-02
      0.120000          0.157948E-02
      0.125000          0.142939E-02
      0.130000          0.129055E-02
      0.135000          0.116179E-02
      0.140000          0.104283E-02
      0.145000          0.933863E-03
      0.150000          0.835357E-03
      0.155000          0.747759E-03
      0.160000          0.671326E-03
      0.165000          0.606025E-03
      0.170000          0.551480E-03
      0.175000          0.506995E-03
      0.180000          0.471609E-03
      0.185000          0.444176E-03
      0.190000          0.423460E-03
      0.195000          0.408212E-03
      0.200000          0.397244E-03
      0.205000          0.389471E-03
      0.210000          0.383942E-03
      0.215000          0.379840E-03
      0.220000          0.376480E-03
      0.225000          0.373294E-03
      0.230000          0.369812E-03
      0.235000          0.365651E-03
      0.240000          0.360504E-03
      0.245000          0.354143E-03
      0.250000          0.346420E-03
      0.255000          0.337272E-03
      0.260000          0.326729E-03
      0.265000          0.314914E-03
      0.270000          0.302035E-03
      0.275000          0.288378E-03
      0.280000          0.274281E-03
      0.285000          0.260112E-03
      0.290000          0.246234E-03
      0.295000          0.232984E-03
      0.300000          0.220637E-03
      0.305000          0.209395E-03
      0.310000          0.199370E-03
      0.315000          0.190588E-03
      0.320000          0.182992E-03
      0.325000          0.176462E-03
      0.330000          0.170834E-03
      0.335000          0.165925E-03
      0.340000          0.161556E-03
      0.345000          0.157571E-03
      0.350000          0.153852E-03
      0.355000          0.150323E-03
      0.360000          0.146955E-03
      0.365000          0.143756E-03
      0.370000          0.140761E-03
      0.375000          0.138019E-03
      0.380000          0.135575E-03
      0.385000          0.133462E-03
      0.390000          0.131690E-03
      0.395000          0.130239E-03
      0.400000          0.129063E-03
      0.405000          0.128089E-03
      0.410000          0.127232E-03
      0.415000          0.126399E-03
      0.420000          0.125504E-03
      0.425000          0.124478E-03
      0.430000          0.123272E-03
      0.435000          0.121867E-03
      0.440000          0.120274E-03
      0.445000          0.118524E-03
      0.450000          0.116672E-03
      0.455000          0.114781E-03
      0.460000          0.112916E-03
      0.465000          0.111135E-03
      0.470000          0.109480E-03
      0.475000          0.107974E-03
      0.480000          0.106620E-03
      0.485000          0.105396E-03
      0.490000          0.104267E-03
      0.495000          0.103183E-03
      0.500000          0.102091E-03
