 I_abs(s)[cm^-1]/c[mg/ml]
       0.00000          0.144951E-01
      0.500000E-02      0.144224E-01
      0.100000E-01      0.142064E-01
      0.150000E-01      0.138531E-01
      0.200000E-01      0.133726E-01
      0.250000E-01      0.127782E-01
      0.300000E-01      0.120860E-01
      0.350000E-01      0.113142E-01
      0.400000E-01      0.104825E-01
      0.450000E-01      0.961119E-02
      0.500000E-01      0.872040E-02
      0.550000E-01      0.782941E-02
      0.600000E-01      0.695603E-02
      0.650000E-01      0.611601E-02
      0.700000E-01      0.532271E-02
      0.750000E-01      0.458677E-02
      0.800000E-01      0.391600E-02
      0.850000E-01      0.331539E-02
      0.900000E-01      0.278724E-02
      0.950000E-01      0.233139E-02
      0.100000          0.194551E-02
      0.105000          0.162550E-02
      0.110000          0.136590E-02
      0.115000          0.116025E-02
      0.120000          0.100156E-02
      0.125000          0.882607E-03
      0.130000          0.796310E-03
      0.135000          0.735953E-03
      0.140000          0.695408E-03
      0.145000          0.669265E-03
      0.150000          0.652918E-03
      0.155000          0.642587E-03
      0.160000          0.635303E-03
      0.165000          0.628853E-03
      0.170000          0.621700E-03
      0.175000          0.612885E-03
      0.180000          0.601921E-03
      0.185000          0.588690E-03
      0.190000          0.573339E-03
      0.195000          0.556193E-03
      0.200000          0.537675E-03
      0.205000          0.518243E-03
      0.210000          0.498343E-03
      0.215000          0.478376E-03
      0.220000          0.458671E-03
      0.225000          0.439480E-03
      0.230000          0.420975E-03
      0.235000          0.403253E-03
      0.240000          0.386347E-03
      0.245000          0.370241E-03
      0.250000          0.354884E-03
      0.255000          0.340206E-03
      0.260000          0.326130E-03
      0.265000          0.312588E-03
      0.270000          0.299528E-03
      0.275000          0.286919E-03
      0.280000          0.274758E-03
      0.285000          0.263068E-03
      0.290000          0.251893E-03
      0.295000          0.241298E-03
      0.300000          0.231359E-03
      0.305000          0.222155E-03
      0.310000          0.213760E-03
      0.315000          0.206238E-03
      0.320000          0.199632E-03
      0.325000          0.193962E-03
      0.330000          0.189220E-03
      0.335000          0.185369E-03
      0.340000          0.182345E-03
      0.345000          0.180058E-03
      0.350000          0.178400E-03
      0.355000          0.177247E-03
      0.360000          0.176467E-03
      0.365000          0.175929E-03
      0.370000          0.175506E-03
      0.375000          0.175085E-03
      0.380000          0.174566E-03
      0.385000          0.173871E-03
      0.390000          0.172943E-03
      0.395000          0.171745E-03
      0.400000          0.170262E-03
      0.405000          0.168499E-03
      0.410000          0.166475E-03
      0.415000          0.164221E-03
      0.420000          0.161778E-03
      0.425000          0.159189E-03
      0.430000          0.156502E-03
      0.435000          0.153761E-03
      0.440000          0.151006E-03
      0.445000          0.148272E-03
      0.450000          0.145586E-03
      0.455000          0.142970E-03
      0.460000          0.140436E-03
      0.465000          0.137990E-03
      0.470000          0.135631E-03
      0.475000          0.133352E-03
      0.480000          0.131143E-03
      0.485000          0.128989E-03
      0.490000          0.126874E-03
      0.495000          0.124780E-03
      0.500000          0.122690E-03
