 I_abs(s)[cm^-1]/c[mg/ml]
       0.00000          0.140521E-01
      0.500000E-02      0.139533E-01
      0.100000E-01      0.136616E-01
      0.150000E-01      0.131908E-01
      0.200000E-01      0.125630E-01
      0.250000E-01      0.118064E-01
      0.300000E-01      0.109536E-01
      0.350000E-01      0.100392E-01
      0.400000E-01      0.909713E-02
      0.450000E-01      0.815910E-02
      0.500000E-01      0.725238E-02
      0.550000E-01      0.639880E-02
      0.600000E-01      0.561405E-02
      0.650000E-01      0.490763E-02
      0.700000E-01      0.428329E-02
      0.750000E-01      0.373989E-02
      0.800000E-01      0.327251E-02
      0.850000E-01      0.287369E-02
      0.900000E-01      0.253468E-02
      0.950000E-01      0.224643E-02
      0.100000          0.200048E-02
      0.105000          0.178950E-02
      0.110000          0.160753E-02
      0.115000          0.145006E-02
      0.120000          0.131380E-02
      0.125000          0.119642E-02
      0.130000          0.109623E-02
      0.135000          0.101179E-02
      0.140000          0.941728E-03
      0.145000          0.884506E-03
      0.150000          0.838392E-03
      0.155000          0.801470E-03
      0.160000          0.771728E-03
      0.165000          0.747186E-03
      0.170000          0.726019E-03
      0.175000          0.706672E-03
      0.180000          0.687923E-03
      0.185000          0.668910E-03
      0.190000          0.649105E-03
      0.195000          0.628262E-03
      0.200000          0.606341E-03
      0.205000          0.583432E-03
      0.210000          0.559682E-03
      0.215000          0.535253E-03
      0.220000          0.510294E-03
      0.225000          0.484939E-03
      0.230000          0.459318E-03
      0.235000          0.433584E-03
      0.240000          0.407928E-03
      0.245000          0.382594E-03
      0.250000          0.357882E-03
      0.255000          0.334124E-03
      0.260000          0.311667E-03
      0.265000          0.290837E-03
      0.270000          0.271900E-03
      0.275000          0.255039E-03
      0.280000          0.240334E-03
      0.285000          0.227755E-03
      0.290000          0.217172E-03
      0.295000          0.208377E-03
      0.300000          0.201110E-03
      0.305000          0.195092E-03
      0.310000          0.190052E-03
      0.315000          0.185752E-03
      0.320000          0.182002E-03
      0.325000          0.178661E-03
      0.330000          0.175638E-03
      0.335000          0.172878E-03
      0.340000          0.170348E-03
      0.345000          0.168028E-03
      0.350000          0.165893E-03
      0.355000          0.163911E-03
      0.360000          0.162037E-03
      0.365000          0.160219E-03
      0.370000          0.158396E-03
      0.375000          0.156512E-03
      0.380000          0.154516E-03
      0.385000          0.152370E-03
      0.390000          0.150047E-03
      0.395000          0.147535E-03
      0.400000          0.144832E-03
      0.405000          0.141945E-03
      0.410000          0.138886E-03
      0.415000          0.135671E-03
      0.420000          0.132322E-03
      0.425000          0.128868E-03
      0.430000          0.125346E-03
      0.435000          0.121806E-03
      0.440000          0.118309E-03
      0.445000          0.114927E-03
      0.450000          0.111739E-03
      0.455000          0.108827E-03
      0.460000          0.106261E-03
      0.465000          0.104096E-03
      0.470000          0.102362E-03
      0.475000          0.101055E-03
      0.480000          0.100140E-03
      0.485000          0.995462E-04
      0.490000          0.991775E-04
      0.495000          0.989206E-04
      0.500000          0.986570E-04
