 I_abs(s)[cm^-1]/c[mg/ml]
       0.00000          0.132910E-01
      0.500000E-02      0.131845E-01
      0.100000E-01      0.128712E-01
      0.150000E-01      0.123685E-01
      0.200000E-01      0.117039E-01
      0.250000E-01      0.109123E-01
      0.300000E-01      0.100338E-01
      0.350000E-01      0.910967E-02
      0.400000E-01      0.817998E-02
      0.450000E-01      0.728042E-02
      0.500000E-01      0.644026E-02
      0.550000E-01      0.568091E-02
      0.600000E-01      0.501535E-02
      0.650000E-01      0.444833E-02
      0.700000E-01      0.397727E-02
      0.750000E-01      0.359373E-02
      0.800000E-01      0.328511E-02
      0.850000E-01      0.303658E-02
      0.900000E-01      0.283276E-02
      0.950000E-01      0.265927E-02
      0.100000          0.250379E-02
      0.105000          0.235682E-02
      0.110000          0.221191E-02
      0.115000          0.206558E-02
      0.120000          0.191692E-02
      0.125000          0.176708E-02
      0.130000          0.161852E-02
      0.135000          0.147442E-02
      0.140000          0.133807E-02
      0.145000          0.121237E-02
      0.150000          0.109953E-02
      0.155000          0.100089E-02
      0.160000          0.916839E-03
      0.165000          0.846863E-03
      0.170000          0.789714E-03
      0.175000          0.743576E-03
      0.180000          0.706282E-03
      0.185000          0.675538E-03
      0.190000          0.649121E-03
      0.195000          0.625059E-03
      0.200000          0.601764E-03
      0.205000          0.578116E-03
      0.210000          0.553502E-03
      0.215000          0.527793E-03
      0.220000          0.501284E-03
      0.225000          0.474588E-03
      0.230000          0.448503E-03
      0.235000          0.423875E-03
      0.240000          0.401457E-03
      0.245000          0.381798E-03
      0.250000          0.365163E-03
      0.255000          0.351497E-03
      0.260000          0.340435E-03
      0.265000          0.331359E-03
      0.270000          0.323483E-03
      0.275000          0.315963E-03
      0.280000          0.308006E-03
      0.285000          0.298972E-03
      0.290000          0.288447E-03
      0.295000          0.276281E-03
      0.300000          0.262598E-03
      0.305000          0.247751E-03
      0.310000          0.232269E-03
      0.315000          0.216772E-03
      0.320000          0.201888E-03
      0.325000          0.188171E-03
      0.330000          0.176042E-03
      0.335000          0.165751E-03
      0.340000          0.157364E-03
      0.345000          0.150778E-03
      0.350000          0.145755E-03
      0.355000          0.141968E-03
      0.360000          0.139051E-03
      0.365000          0.136650E-03
      0.370000          0.134461E-03
      0.375000          0.132253E-03
      0.380000          0.129879E-03
      0.385000          0.127277E-03
      0.390000          0.124448E-03
      0.395000          0.121443E-03
      0.400000          0.118335E-03
      0.405000          0.115204E-03
      0.410000          0.112114E-03
      0.415000          0.109112E-03
      0.420000          0.106223E-03
      0.425000          0.103452E-03
      0.430000          0.100794E-03
      0.435000          0.982401E-04
      0.440000          0.957886E-04
      0.445000          0.934462E-04
      0.450000          0.912309E-04
      0.455000          0.891696E-04
      0.460000          0.872927E-04
      0.465000          0.856270E-04
      0.470000          0.841888E-04
      0.475000          0.829785E-04
      0.480000          0.819772E-04
      0.485000          0.811468E-04
      0.490000          0.804336E-04
      0.495000          0.797735E-04
      0.500000          0.791004E-04
