 I_abs(s)[cm^-1]/c[mg/ml]
       0.00000          0.136881E-01
      0.500000E-02      0.136070E-01
      0.100000E-01      0.133666E-01
      0.150000E-01      0.129764E-01
      0.200000E-01      0.124512E-01
      0.250000E-01      0.118105E-01
      0.300000E-01      0.110773E-01
      0.350000E-01      0.102768E-01
      0.400000E-01      0.943493E-02
      0.450000E-01      0.857705E-02
      0.500000E-01      0.772661E-02
      0.550000E-01      0.690424E-02
      0.600000E-01      0.612690E-02
      0.650000E-01      0.540747E-02
      0.700000E-01      0.475456E-02
      0.750000E-01      0.417270E-02
      0.800000E-01      0.366269E-02
      0.850000E-01      0.322217E-02
      0.900000E-01      0.284638E-02
      0.950000E-01      0.252885E-02
      0.100000          0.226219E-02
      0.105000          0.203874E-02
      0.110000          0.185112E-02
      0.115000          0.169266E-02
      0.120000          0.155762E-02
      0.125000          0.144136E-02
      0.130000          0.134025E-02
      0.135000          0.125160E-02
      0.140000          0.117347E-02
      0.145000          0.110445E-02
      0.150000          0.104345E-02
      0.155000          0.989551E-03
      0.160000          0.941820E-03
      0.165000          0.899278E-03
      0.170000          0.860855E-03
      0.175000          0.825424E-03
      0.180000          0.791856E-03
      0.185000          0.759106E-03
      0.190000          0.726287E-03
      0.195000          0.692744E-03
      0.200000          0.658101E-03
      0.205000          0.622277E-03
      0.210000          0.585471E-03
      0.215000          0.548117E-03
      0.220000          0.510819E-03
      0.225000          0.474274E-03
      0.230000          0.439188E-03
      0.235000          0.406201E-03
      0.240000          0.375823E-03
      0.245000          0.348398E-03
      0.250000          0.324083E-03
      0.255000          0.302852E-03
      0.260000          0.284521E-03
      0.265000          0.268785E-03
      0.270000          0.255263E-03
      0.275000          0.243549E-03
      0.280000          0.233252E-03
      0.285000          0.224032E-03
      0.290000          0.215624E-03
      0.295000          0.207848E-03
      0.300000          0.200605E-03
      0.305000          0.193864E-03
      0.310000          0.187644E-03
      0.315000          0.181988E-03
      0.320000          0.176943E-03
      0.325000          0.172535E-03
      0.330000          0.168759E-03
      0.335000          0.165572E-03
      0.340000          0.162890E-03
      0.345000          0.160593E-03
      0.350000          0.158545E-03
      0.355000          0.156598E-03
      0.360000          0.154613E-03
      0.365000          0.152473E-03
      0.370000          0.150092E-03
      0.375000          0.147425E-03
      0.380000          0.144463E-03
      0.385000          0.141236E-03
      0.390000          0.137806E-03
      0.395000          0.134251E-03
      0.400000          0.130663E-03
      0.405000          0.127128E-03
      0.410000          0.123723E-03
      0.415000          0.120504E-03
      0.420000          0.117506E-03
      0.425000          0.114738E-03
      0.430000          0.112184E-03
      0.435000          0.109812E-03
      0.440000          0.107576E-03
      0.445000          0.105427E-03
      0.450000          0.103314E-03
      0.455000          0.101197E-03
      0.460000          0.990491E-04
      0.465000          0.968581E-04
      0.470000          0.946298E-04
      0.475000          0.923857E-04
      0.480000          0.901608E-04
      0.485000          0.879991E-04
      0.490000          0.859490E-04
      0.495000          0.840583E-04
      0.500000          0.823694E-04
