 I_abs(s)[cm^-1]/c[mg/ml]
       0.00000          0.145555E-01
      0.500000E-02      0.144583E-01
      0.100000E-01      0.141709E-01
      0.150000E-01      0.137064E-01
      0.200000E-01      0.130850E-01
      0.250000E-01      0.123330E-01
      0.300000E-01      0.114807E-01
      0.350000E-01      0.105601E-01
      0.400000E-01      0.960300E-02
      0.450000E-01      0.863918E-02
      0.500000E-01      0.769476E-02
      0.550000E-01      0.679130E-02
      0.600000E-01      0.594524E-02
      0.650000E-01      0.516789E-02
      0.700000E-01      0.446578E-02
      0.750000E-01      0.384130E-02
      0.800000E-01      0.329352E-02
      0.850000E-01      0.281904E-02
      0.900000E-01      0.241278E-02
      0.950000E-01      0.206867E-02
      0.100000          0.178018E-02
      0.105000          0.154067E-02
      0.110000          0.134366E-02
      0.115000          0.118295E-02
      0.120000          0.105270E-02
      0.125000          0.947522E-03
      0.130000          0.862496E-03
      0.135000          0.793257E-03
      0.140000          0.736046E-03
      0.145000          0.687763E-03
      0.150000          0.645990E-03
      0.155000          0.608975E-03
      0.160000          0.575567E-03
      0.165000          0.545119E-03
      0.170000          0.517344E-03
      0.175000          0.492176E-03
      0.180000          0.469621E-03
      0.185000          0.449652E-03
      0.190000          0.432129E-03
      0.195000          0.416780E-03
      0.200000          0.403211E-03
      0.205000          0.390961E-03
      0.210000          0.379571E-03
      0.215000          0.368651E-03
      0.220000          0.357936E-03
      0.225000          0.347318E-03
      0.230000          0.336842E-03
      0.235000          0.326677E-03
      0.240000          0.317065E-03
      0.245000          0.308260E-03
      0.250000          0.300467E-03
      0.255000          0.293792E-03
      0.260000          0.288216E-03
      0.265000          0.283590E-03
      0.270000          0.279650E-03
      0.275000          0.276058E-03
      0.280000          0.272442E-03
      0.285000          0.268450E-03
      0.290000          0.263787E-03
      0.295000          0.258254E-03
      0.300000          0.251761E-03
      0.305000          0.244331E-03
      0.310000          0.236091E-03
      0.315000          0.227254E-03
      0.320000          0.218090E-03
      0.325000          0.208896E-03
      0.330000          0.199974E-03
      0.335000          0.191600E-03
      0.340000          0.184011E-03
      0.345000          0.177381E-03
      0.350000          0.171822E-03
      0.355000          0.167372E-03
      0.360000          0.163997E-03
      0.365000          0.161602E-03
      0.370000          0.160031E-03
      0.375000          0.159089E-03
      0.380000          0.158557E-03
      0.385000          0.158206E-03
      0.390000          0.157819E-03
      0.395000          0.157207E-03
      0.400000          0.156221E-03
      0.405000          0.154760E-03
      0.410000          0.152779E-03
      0.415000          0.150278E-03
      0.420000          0.147305E-03
      0.425000          0.143936E-03
      0.430000          0.140270E-03
      0.435000          0.136412E-03
      0.440000          0.132463E-03
      0.445000          0.128513E-03
      0.450000          0.124635E-03
      0.455000          0.120882E-03
      0.460000          0.117290E-03
      0.465000          0.113880E-03
      0.470000          0.110660E-03
      0.475000          0.107634E-03
      0.480000          0.104803E-03
      0.485000          0.102166E-03
      0.490000          0.997273E-04
      0.495000          0.974924E-04
      0.500000          0.954711E-04
