 I_abs(s)[cm^-1]/c[mg/ml]
       0.00000          0.138038E-01
      0.500000E-02      0.137306E-01
      0.100000E-01      0.135138E-01
      0.150000E-01      0.131607E-01
      0.200000E-01      0.126835E-01
      0.250000E-01      0.120981E-01
      0.300000E-01      0.114236E-01
      0.350000E-01      0.106809E-01
      0.400000E-01      0.989221E-02
      0.450000E-01      0.907953E-02
      0.500000E-01      0.826379E-02
      0.550000E-01      0.746403E-02
      0.600000E-01      0.669663E-02
      0.650000E-01      0.597486E-02
      0.700000E-01      0.530853E-02
      0.750000E-01      0.470404E-02
      0.800000E-01      0.416441E-02
      0.850000E-01      0.368967E-02
      0.900000E-01      0.327730E-02
      0.950000E-01      0.292278E-02
      0.100000          0.262016E-02
      0.105000          0.236268E-02
      0.110000          0.214328E-02
      0.115000          0.195509E-02
      0.120000          0.179182E-02
      0.125000          0.164800E-02
      0.130000          0.151913E-02
      0.135000          0.140175E-02
      0.140000          0.129341E-02
      0.145000          0.119251E-02
      0.150000          0.109820E-02
      0.155000          0.101014E-02
      0.160000          0.928382E-03
      0.165000          0.853107E-03
      0.170000          0.784545E-03
      0.175000          0.722833E-03
      0.180000          0.667941E-03
      0.185000          0.619643E-03
      0.190000          0.577512E-03
      0.195000          0.540949E-03
      0.200000          0.509223E-03
      0.205000          0.481538E-03
      0.210000          0.457082E-03
      0.215000          0.435088E-03
      0.220000          0.414878E-03
      0.225000          0.395893E-03
      0.230000          0.377710E-03
      0.235000          0.360050E-03
      0.240000          0.342763E-03
      0.245000          0.325814E-03
      0.250000          0.309256E-03
      0.255000          0.293203E-03
      0.260000          0.277800E-03
      0.265000          0.263200E-03
      0.270000          0.249541E-03
      0.275000          0.236933E-03
      0.280000          0.225444E-03
      0.285000          0.215101E-03
      0.290000          0.205885E-03
      0.295000          0.197741E-03
      0.300000          0.190581E-03
      0.305000          0.184294E-03
      0.310000          0.178756E-03
      0.315000          0.173838E-03
      0.320000          0.169414E-03
      0.325000          0.165366E-03
      0.330000          0.161590E-03
      0.335000          0.157999E-03
      0.340000          0.154522E-03
      0.345000          0.151109E-03
      0.350000          0.147725E-03
      0.355000          0.144351E-03
      0.360000          0.140980E-03
      0.365000          0.137620E-03
      0.370000          0.134282E-03
      0.375000          0.130989E-03
      0.380000          0.127762E-03
      0.385000          0.124626E-03
      0.390000          0.121606E-03
      0.395000          0.118723E-03
      0.400000          0.115993E-03
      0.405000          0.113429E-03
      0.410000          0.111038E-03
      0.415000          0.108820E-03
      0.420000          0.106773E-03
      0.425000          0.104887E-03
      0.430000          0.103150E-03
      0.435000          0.101548E-03
      0.440000          0.100066E-03
      0.445000          0.986895E-04
      0.450000          0.974051E-04
      0.455000          0.962023E-04
      0.460000          0.950735E-04
      0.465000          0.940138E-04
      0.470000          0.930209E-04
      0.475000          0.920945E-04
      0.480000          0.912349E-04
      0.485000          0.904421E-04
      0.490000          0.897146E-04
      0.495000          0.890484E-04
      0.500000          0.884365E-04
