 I_abs(s)[cm^-1]/c[mg/ml]
       0.00000          0.140755E-01
      0.500000E-02      0.139949E-01
      0.100000E-01      0.137560E-01
      0.150000E-01      0.133679E-01
      0.200000E-01      0.128449E-01
      0.250000E-01      0.122061E-01
      0.300000E-01      0.114738E-01
      0.350000E-01      0.106724E-01
      0.400000E-01      0.982732E-02
      0.450000E-01      0.896328E-02
      0.500000E-01      0.810336E-02
      0.550000E-01      0.726798E-02
      0.600000E-01      0.647412E-02
      0.650000E-01      0.573489E-02
      0.700000E-01      0.505940E-02
      0.750000E-01      0.445282E-02
      0.800000E-01      0.391675E-02
      0.850000E-01      0.344973E-02
      0.900000E-01      0.304784E-02
      0.950000E-01      0.270542E-02
      0.100000          0.241572E-02
      0.105000          0.217152E-02
      0.110000          0.196562E-02
      0.115000          0.179130E-02
      0.120000          0.164254E-02
      0.125000          0.151421E-02
      0.130000          0.140211E-02
      0.135000          0.130289E-02
      0.140000          0.121403E-02
      0.145000          0.113364E-02
      0.150000          0.106034E-02
      0.155000          0.993136E-03
      0.160000          0.931282E-03
      0.165000          0.874196E-03
      0.170000          0.821394E-03
      0.175000          0.772448E-03
      0.180000          0.726969E-03
      0.185000          0.684598E-03
      0.190000          0.645009E-03
      0.195000          0.607913E-03
      0.200000          0.573058E-03
      0.205000          0.540235E-03
      0.210000          0.509271E-03
      0.215000          0.480026E-03
      0.220000          0.452389E-03
      0.225000          0.426272E-03
      0.230000          0.401609E-03
      0.235000          0.378353E-03
      0.240000          0.356480E-03
      0.245000          0.335991E-03
      0.250000          0.316909E-03
      0.255000          0.299282E-03
      0.260000          0.283175E-03
      0.265000          0.268665E-03
      0.270000          0.255824E-03
      0.275000          0.244709E-03
      0.280000          0.235344E-03
      0.285000          0.227705E-03
      0.290000          0.221711E-03
      0.295000          0.217217E-03
      0.300000          0.214016E-03
      0.305000          0.211844E-03
      0.310000          0.210392E-03
      0.315000          0.209330E-03
      0.320000          0.208327E-03
      0.325000          0.207071E-03
      0.330000          0.205297E-03
      0.335000          0.202800E-03
      0.340000          0.199450E-03
      0.345000          0.195199E-03
      0.350000          0.190078E-03
      0.355000          0.184192E-03
      0.360000          0.177704E-03
      0.365000          0.170820E-03
      0.370000          0.163768E-03
      0.375000          0.156781E-03
      0.380000          0.150072E-03
      0.385000          0.143826E-03
      0.390000          0.138186E-03
      0.395000          0.133246E-03
      0.400000          0.129050E-03
      0.405000          0.125594E-03
      0.410000          0.122832E-03
      0.415000          0.120689E-03
      0.420000          0.119061E-03
      0.425000          0.117837E-03
      0.430000          0.116898E-03
      0.435000          0.116136E-03
      0.440000          0.115448E-03
      0.445000          0.114753E-03
      0.450000          0.113985E-03
      0.455000          0.113096E-03
      0.460000          0.112060E-03
      0.465000          0.110863E-03
      0.470000          0.109505E-03
      0.475000          0.107997E-03
      0.480000          0.106357E-03
      0.485000          0.104605E-03
      0.490000          0.102767E-03
      0.495000          0.100866E-03
      0.500000          0.989280E-04
