 I_abs(s)[cm^-1]/c[mg/ml]
       0.00000          0.142085E-01
      0.500000E-02      0.140861E-01
      0.100000E-01      0.137251E-01
      0.150000E-01      0.131438E-01
      0.200000E-01      0.123711E-01
      0.250000E-01      0.114442E-01
      0.300000E-01      0.104059E-01
      0.350000E-01      0.930136E-02
      0.400000E-01      0.817487E-02
      0.450000E-01      0.706728E-02
      0.500000E-01      0.601344E-02
      0.550000E-01      0.504066E-02
      0.600000E-01      0.416782E-02
      0.650000E-01      0.340533E-02
      0.700000E-01      0.275578E-02
      0.750000E-01      0.221518E-02
      0.800000E-01      0.177457E-02
      0.850000E-01      0.142177E-02
      0.900000E-01      0.114319E-02
      0.950000E-01      0.925282E-03
      0.100000          0.755784E-03
      0.105000          0.624471E-03
      0.110000          0.523507E-03
      0.115000          0.447398E-03
      0.120000          0.392639E-03
      0.125000          0.357164E-03
      0.130000          0.339710E-03
      0.135000          0.339204E-03
      0.140000          0.354274E-03
      0.145000          0.382924E-03
      0.150000          0.422405E-03
      0.155000          0.469289E-03
      0.160000          0.519678E-03
      0.165000          0.569527E-03
      0.170000          0.615003E-03
      0.175000          0.652822E-03
      0.180000          0.680515E-03
      0.185000          0.696598E-03
      0.190000          0.700618E-03
      0.195000          0.693085E-03
      0.200000          0.675317E-03
      0.205000          0.649214E-03
      0.210000          0.617007E-03
      0.215000          0.581005E-03
      0.220000          0.543381E-03
      0.225000          0.506012E-03
      0.230000          0.470367E-03
      0.235000          0.437477E-03
      0.240000          0.407941E-03
      0.245000          0.381987E-03
      0.250000          0.359541E-03
      0.255000          0.340322E-03
      0.260000          0.323920E-03
      0.265000          0.309868E-03
      0.270000          0.297695E-03
      0.275000          0.286961E-03
      0.280000          0.277274E-03
      0.285000          0.268303E-03
      0.290000          0.259777E-03
      0.295000          0.251489E-03
      0.300000          0.243290E-03
      0.305000          0.235093E-03
      0.310000          0.226872E-03
      0.315000          0.218656E-03
      0.320000          0.210527E-03
      0.325000          0.202607E-03
      0.330000          0.195044E-03
      0.335000          0.187988E-03
      0.340000          0.181576E-03
      0.345000          0.175907E-03
      0.350000          0.171029E-03
      0.355000          0.166929E-03
      0.360000          0.163531E-03
      0.365000          0.160708E-03
      0.370000          0.158295E-03
      0.375000          0.156110E-03
      0.380000          0.153979E-03
      0.385000          0.151758E-03
      0.390000          0.149344E-03
      0.395000          0.146694E-03
      0.400000          0.143820E-03
      0.405000          0.140782E-03
      0.410000          0.137678E-03
      0.415000          0.134623E-03
      0.420000          0.131730E-03
      0.425000          0.129090E-03
      0.430000          0.126763E-03
      0.435000          0.124762E-03
      0.440000          0.123061E-03
      0.445000          0.121595E-03
      0.450000          0.120271E-03
      0.455000          0.118988E-03
      0.460000          0.117645E-03
      0.465000          0.116158E-03
      0.470000          0.114474E-03
      0.475000          0.112568E-03
      0.480000          0.110454E-03
      0.485000          0.108174E-03
      0.490000          0.105792E-03
      0.495000          0.103383E-03
      0.500000          0.101023E-03
