 I_abs(s)[cm^-1]/c[mg/ml]
       0.00000          0.143342E-01
      0.500000E-02      0.142356E-01
      0.100000E-01      0.139441E-01
      0.150000E-01      0.134724E-01
      0.200000E-01      0.128410E-01
      0.250000E-01      0.120759E-01
      0.300000E-01      0.112080E-01
      0.350000E-01      0.102701E-01
      0.400000E-01      0.929543E-02
      0.450000E-01      0.831536E-02
      0.500000E-01      0.735804E-02
      0.550000E-01      0.644698E-02
      0.600000E-01      0.560031E-02
      0.650000E-01      0.483043E-02
      0.700000E-01      0.414424E-02
      0.750000E-01      0.354356E-02
      0.800000E-01      0.302606E-02
      0.850000E-01      0.258621E-02
      0.900000E-01      0.221634E-02
      0.950000E-01      0.190769E-02
      0.100000          0.165126E-02
      0.105000          0.143852E-02
      0.110000          0.126185E-02
      0.115000          0.111482E-02
      0.120000          0.992217E-03
      0.125000          0.889954E-03
      0.130000          0.804875E-03
      0.135000          0.734504E-03
      0.140000          0.676808E-03
      0.145000          0.630000E-03
      0.150000          0.592395E-03
      0.155000          0.562346E-03
      0.160000          0.538238E-03
      0.165000          0.518529E-03
      0.170000          0.501820E-03
      0.175000          0.486932E-03
      0.180000          0.472957E-03
      0.185000          0.459296E-03
      0.190000          0.445646E-03
      0.195000          0.431960E-03
      0.200000          0.418386E-03
      0.205000          0.405176E-03
      0.210000          0.392604E-03
      0.215000          0.380895E-03
      0.220000          0.370166E-03
      0.225000          0.360402E-03
      0.230000          0.351457E-03
      0.235000          0.343078E-03
      0.240000          0.334945E-03
      0.245000          0.326731E-03
      0.250000          0.318143E-03
      0.255000          0.308972E-03
      0.260000          0.299119E-03
      0.265000          0.288606E-03
      0.270000          0.277570E-03
      0.275000          0.266241E-03
      0.280000          0.254909E-03
      0.285000          0.243889E-03
      0.290000          0.233483E-03
      0.295000          0.223949E-03
      0.300000          0.215478E-03
      0.305000          0.208184E-03
      0.310000          0.202099E-03
      0.315000          0.197183E-03
      0.320000          0.193336E-03
      0.325000          0.190412E-03
      0.330000          0.188243E-03
      0.335000          0.186650E-03
      0.340000          0.185456E-03
      0.345000          0.184498E-03
      0.350000          0.183631E-03
      0.355000          0.182733E-03
      0.360000          0.181702E-03
      0.365000          0.180460E-03
      0.370000          0.178950E-03
      0.375000          0.177135E-03
      0.380000          0.175001E-03
      0.385000          0.172553E-03
      0.390000          0.169817E-03
      0.395000          0.166837E-03
      0.400000          0.163671E-03
      0.405000          0.160389E-03
      0.410000          0.157068E-03
      0.415000          0.153784E-03
      0.420000          0.150606E-03
      0.425000          0.147591E-03
      0.430000          0.144782E-03
      0.435000          0.142202E-03
      0.440000          0.139858E-03
      0.445000          0.137739E-03
      0.450000          0.135822E-03
      0.455000          0.134076E-03
      0.460000          0.132466E-03
      0.465000          0.130960E-03
      0.470000          0.129530E-03
      0.475000          0.128154E-03
      0.480000          0.126819E-03
      0.485000          0.125516E-03
      0.490000          0.124242E-03
      0.495000          0.122994E-03
      0.500000          0.121768E-03
