 I_abs(s)[cm^-1]/c[mg/ml]
       0.00000          0.130017E-01
      0.500000E-02      0.128172E-01
      0.100000E-01      0.122840E-01
      0.150000E-01      0.114593E-01
      0.200000E-01      0.104275E-01
      0.250000E-01      0.928650E-02
      0.300000E-01      0.813260E-02
      0.350000E-01      0.704671E-02
      0.400000E-01      0.608505E-02
      0.450000E-01      0.527513E-02
      0.500000E-01      0.461754E-02
      0.550000E-01      0.409226E-02
      0.600000E-01      0.366759E-02
      0.650000E-01      0.330959E-02
      0.700000E-01      0.298973E-02
      0.750000E-01      0.268953E-02
      0.800000E-01      0.240175E-02
      0.850000E-01      0.212843E-02
      0.900000E-01      0.187708E-02
      0.950000E-01      0.165627E-02
      0.100000          0.147195E-02
      0.105000          0.132541E-02
      0.110000          0.121302E-02
      0.115000          0.112758E-02
      0.120000          0.106056E-02
      0.125000          0.100429E-02
      0.130000          0.953663E-03
      0.135000          0.906666E-03
      0.140000          0.863953E-03
      0.145000          0.827652E-03
      0.150000          0.799920E-03
      0.155000          0.781744E-03
      0.160000          0.772316E-03
      0.165000          0.769109E-03
      0.170000          0.768516E-03
      0.175000          0.766786E-03
      0.180000          0.760908E-03
      0.185000          0.749176E-03
      0.190000          0.731312E-03
      0.195000          0.708170E-03
      0.200000          0.681183E-03
      0.205000          0.651785E-03
      0.210000          0.620996E-03
      0.215000          0.589283E-03
      0.220000          0.556706E-03
      0.225000          0.523227E-03
      0.230000          0.489049E-03
      0.235000          0.454833E-03
      0.240000          0.421699E-03
      0.245000          0.391012E-03
      0.250000          0.364043E-03
      0.255000          0.341608E-03
      0.260000          0.323831E-03
      0.265000          0.310106E-03
      0.270000          0.299272E-03
      0.275000          0.289945E-03
      0.280000          0.280900E-03
      0.285000          0.271389E-03
      0.290000          0.261295E-03
      0.295000          0.251091E-03
      0.300000          0.241618E-03
      0.305000          0.233772E-03
      0.310000          0.228191E-03
      0.315000          0.225035E-03
      0.320000          0.223925E-03
      0.325000          0.224038E-03
      0.330000          0.224330E-03
      0.335000          0.223798E-03
      0.340000          0.221721E-03
      0.345000          0.217802E-03
      0.350000          0.212180E-03
      0.355000          0.205337E-03
      0.360000          0.197921E-03
      0.365000          0.190560E-03
      0.370000          0.183709E-03
      0.375000          0.177571E-03
      0.380000          0.172110E-03
      0.385000          0.167123E-03
      0.390000          0.162355E-03
      0.395000          0.157600E-03
      0.400000          0.152775E-03
      0.405000          0.147933E-03
      0.410000          0.143230E-03
      0.415000          0.138866E-03
      0.420000          0.135010E-03
      0.425000          0.131749E-03
      0.430000          0.129072E-03
      0.435000          0.126877E-03
      0.440000          0.125013E-03
      0.445000          0.123323E-03
      0.450000          0.121670E-03
      0.455000          0.119960E-03
      0.460000          0.118123E-03
      0.465000          0.116100E-03
      0.470000          0.113816E-03
      0.475000          0.111173E-03
      0.480000          0.108063E-03
      0.485000          0.104402E-03
      0.490000          0.100168E-03
      0.495000          0.954417E-04
      0.500000          0.904133E-04
