 I_abs(s)[cm^-1]/c[mg/ml]
       0.00000          0.118654E-01
      0.500000E-02      0.115809E-01
      0.100000E-01      0.107811E-01
      0.150000E-01      0.961000E-02
      0.200000E-01      0.825982E-02
      0.250000E-01      0.691814E-02
      0.300000E-01      0.572453E-02
      0.350000E-01      0.474941E-02
      0.400000E-01      0.399836E-02
      0.450000E-01      0.343432E-02
      0.500000E-01      0.300524E-02
      0.550000E-01      0.266536E-02
      0.600000E-01      0.238464E-02
      0.650000E-01      0.214731E-02
      0.700000E-01      0.194521E-02
      0.750000E-01      0.177196E-02
      0.800000E-01      0.162085E-02
      0.850000E-01      0.148622E-02
      0.900000E-01      0.136555E-02
      0.950000E-01      0.125987E-02
      0.100000          0.117181E-02
      0.105000          0.110267E-02
      0.110000          0.105038E-02
      0.115000          0.100955E-02
      0.120000          0.973562E-03
      0.125000          0.937017E-03
      0.130000          0.897377E-03
      0.135000          0.854938E-03
      0.140000          0.811603E-03
      0.145000          0.769429E-03
      0.150000          0.729764E-03
      0.155000          0.693190E-03
      0.160000          0.659890E-03
      0.165000          0.629944E-03
      0.170000          0.603303E-03
      0.175000          0.579622E-03
      0.180000          0.558259E-03
      0.185000          0.538585E-03
      0.190000          0.520417E-03
      0.195000          0.504185E-03
      0.200000          0.490623E-03
      0.205000          0.480082E-03
      0.210000          0.471928E-03
      0.215000          0.464468E-03
      0.220000          0.455545E-03
      0.225000          0.443489E-03
      0.230000          0.427885E-03
      0.235000          0.409701E-03
      0.240000          0.390715E-03
      0.245000          0.372610E-03
      0.250000          0.356246E-03
      0.255000          0.341496E-03
      0.260000          0.327631E-03
      0.265000          0.313935E-03
      0.270000          0.300142E-03
      0.275000          0.286473E-03
      0.280000          0.273345E-03
      0.285000          0.261032E-03
      0.290000          0.249535E-03
      0.295000          0.238723E-03
      0.300000          0.228623E-03
      0.305000          0.219577E-03
      0.310000          0.212161E-03
      0.315000          0.206847E-03
      0.320000          0.203648E-03
      0.325000          0.201940E-03
      0.330000          0.200582E-03
      0.335000          0.198291E-03
      0.340000          0.194090E-03
      0.345000          0.187634E-03
      0.350000          0.179297E-03
      0.355000          0.170017E-03
      0.360000          0.160978E-03
      0.365000          0.153253E-03
      0.370000          0.147518E-03
      0.375000          0.143903E-03
      0.380000          0.142001E-03
      0.385000          0.141038E-03
      0.390000          0.140123E-03
      0.395000          0.138512E-03
      0.400000          0.135783E-03
      0.405000          0.131882E-03
      0.410000          0.127042E-03
      0.415000          0.121632E-03
      0.420000          0.116020E-03
      0.425000          0.110505E-03
      0.430000          0.105311E-03
      0.435000          0.100614E-03
      0.440000          0.965474E-04
      0.445000          0.931803E-04
      0.450000          0.904835E-04
      0.455000          0.883285E-04
      0.460000          0.865340E-04
      0.465000          0.849398E-04
      0.470000          0.834592E-04
      0.475000          0.820753E-04
      0.480000          0.807875E-04
      0.485000          0.795530E-04
      0.490000          0.782779E-04
      0.495000          0.768728E-04
      0.500000          0.753372E-04
