 I_abs(s)[cm^-1]/c[mg/ml]
       0.00000          0.119515E-01
      0.500000E-02      0.116657E-01
      0.100000E-01      0.108638E-01
      0.150000E-01      0.969472E-02
      0.200000E-01      0.835437E-02
      0.250000E-01      0.702983E-02
      0.300000E-01      0.585525E-02
      0.350000E-01      0.489320E-02
      0.400000E-01      0.414305E-02
      0.450000E-01      0.356652E-02
      0.500000E-01      0.311597E-02
      0.550000E-01      0.275358E-02
      0.600000E-01      0.245723E-02
      0.650000E-01      0.221602E-02
      0.700000E-01      0.202256E-02
      0.750000E-01      0.186776E-02
      0.800000E-01      0.174025E-02
      0.850000E-01      0.162907E-02
      0.900000E-01      0.152657E-02
      0.950000E-01      0.142939E-02
      0.100000          0.133734E-02
      0.105000          0.125147E-02
      0.110000          0.117265E-02
      0.115000          0.110118E-02
      0.120000          0.103708E-02
      0.125000          0.980245E-03
      0.130000          0.930299E-03
      0.135000          0.886272E-03
      0.140000          0.846616E-03
      0.145000          0.809677E-03
      0.150000          0.774353E-03
      0.155000          0.740423E-03
      0.160000          0.708319E-03
      0.165000          0.678502E-03
      0.170000          0.650947E-03
      0.175000          0.625127E-03
      0.180000          0.600464E-03
      0.185000          0.576878E-03
      0.190000          0.554961E-03
      0.195000          0.535632E-03
      0.200000          0.519485E-03
      0.205000          0.506283E-03
      0.210000          0.494920E-03
      0.215000          0.483851E-03
      0.220000          0.471687E-03
      0.225000          0.457623E-03
      0.230000          0.441509E-03
      0.235000          0.423653E-03
      0.240000          0.404564E-03
      0.245000          0.384801E-03
      0.250000          0.364943E-03
      0.255000          0.345578E-03
      0.260000          0.327246E-03
      0.265000          0.310320E-03
      0.270000          0.294930E-03
      0.275000          0.280996E-03
      0.280000          0.268362E-03
      0.285000          0.256923E-03
      0.290000          0.246671E-03
      0.295000          0.237618E-03
      0.300000          0.229692E-03
      0.305000          0.222691E-03
      0.310000          0.216343E-03
      0.315000          0.210419E-03
      0.320000          0.204798E-03
      0.325000          0.199436E-03
      0.330000          0.194256E-03
      0.335000          0.189080E-03
      0.340000          0.183653E-03
      0.345000          0.177778E-03
      0.350000          0.171458E-03
      0.355000          0.164935E-03
      0.360000          0.158586E-03
      0.365000          0.152737E-03
      0.370000          0.147515E-03
      0.375000          0.142824E-03
      0.380000          0.138461E-03
      0.385000          0.134264E-03
      0.390000          0.130199E-03
      0.395000          0.126327E-03
      0.400000          0.122687E-03
      0.405000          0.119193E-03
      0.410000          0.115627E-03
      0.415000          0.111734E-03
      0.420000          0.107372E-03
      0.425000          0.102608E-03
      0.430000          0.977230E-04
      0.435000          0.931120E-04
      0.440000          0.891457E-04
      0.445000          0.860553E-04
      0.450000          0.838817E-04
      0.455000          0.824907E-04
      0.460000          0.816297E-04
      0.465000          0.810003E-04
      0.470000          0.803284E-04
      0.475000          0.794211E-04
      0.480000          0.782006E-04
      0.485000          0.767031E-04
      0.490000          0.750390E-04
      0.495000          0.733261E-04
      0.500000          0.716255E-04
