 I_abs(s)[cm^-1]/c[mg/ml]
       0.00000          0.124234E-01
      0.500000E-02      0.122214E-01
      0.100000E-01      0.116402E-01
      0.150000E-01      0.107486E-01
      0.200000E-01      0.964702E-02
      0.250000E-01      0.844917E-02
      0.300000E-01      0.726272E-02
      0.350000E-01      0.617349E-02
      0.400000E-01      0.523580E-02
      0.450000E-01      0.447035E-02
      0.500000E-01      0.386914E-02
      0.550000E-01      0.340497E-02
      0.600000E-01      0.304252E-02
      0.650000E-01      0.274811E-02
      0.700000E-01      0.249606E-02
      0.750000E-01      0.227095E-02
      0.800000E-01      0.206638E-02
      0.850000E-01      0.188151E-02
      0.900000E-01      0.171738E-02
      0.950000E-01      0.157404E-02
      0.100000          0.144949E-02
      0.105000          0.134019E-02
      0.110000          0.124243E-02
      0.115000          0.115385E-02
      0.120000          0.107414E-02
      0.125000          0.100474E-02
      0.130000          0.947725E-03
      0.135000          0.904327E-03
      0.140000          0.873762E-03
      0.145000          0.852850E-03
      0.150000          0.836565E-03
      0.155000          0.819292E-03
      0.160000          0.796339E-03
      0.165000          0.765151E-03
      0.170000          0.725839E-03
      0.175000          0.680891E-03
      0.180000          0.634209E-03
      0.185000          0.589850E-03
      0.190000          0.550887E-03
      0.195000          0.518726E-03
      0.200000          0.493020E-03
      0.205000          0.472128E-03
      0.210000          0.453864E-03
      0.215000          0.436267E-03
      0.220000          0.418136E-03
      0.225000          0.399218E-03
      0.230000          0.380050E-03
      0.235000          0.361586E-03
      0.240000          0.344790E-03
      0.245000          0.330318E-03
      0.250000          0.318388E-03
      0.255000          0.308820E-03
      0.260000          0.301191E-03
      0.265000          0.295007E-03
      0.270000          0.289827E-03
      0.275000          0.285295E-03
      0.280000          0.281115E-03
      0.285000          0.276984E-03
      0.290000          0.272552E-03
      0.295000          0.267428E-03
      0.300000          0.261248E-03
      0.305000          0.253757E-03
      0.310000          0.244898E-03
      0.315000          0.234852E-03
      0.320000          0.224016E-03
      0.325000          0.212928E-03
      0.330000          0.202165E-03
      0.335000          0.192229E-03
      0.340000          0.183470E-03
      0.345000          0.176047E-03
      0.350000          0.169940E-03
      0.355000          0.164988E-03
      0.360000          0.160956E-03
      0.365000          0.157584E-03
      0.370000          0.154639E-03
      0.375000          0.151934E-03
      0.380000          0.149337E-03
      0.385000          0.146761E-03
      0.390000          0.144155E-03
      0.395000          0.141487E-03
      0.400000          0.138732E-03
      0.405000          0.135869E-03
      0.410000          0.132875E-03
      0.415000          0.129729E-03
      0.420000          0.126417E-03
      0.425000          0.122940E-03
      0.430000          0.119327E-03
      0.435000          0.115637E-03
      0.440000          0.111962E-03
      0.445000          0.108423E-03
      0.450000          0.105153E-03
      0.455000          0.102272E-03
      0.460000          0.998654E-04
      0.465000          0.979556E-04
      0.470000          0.964938E-04
      0.475000          0.953600E-04
      0.480000          0.943832E-04
      0.485000          0.933760E-04
      0.490000          0.921763E-04
      0.495000          0.906853E-04
      0.500000          0.888905E-04
