 I_abs(s)[cm^-1]/c[mg/ml]
       0.00000          0.125556E-01
      0.500000E-02      0.123568E-01
      0.100000E-01      0.117843E-01
      0.150000E-01      0.109061E-01
      0.200000E-01      0.982068E-02
      0.250000E-01      0.863900E-02
      0.300000E-01      0.746573E-02
      0.350000E-01      0.638369E-02
      0.400000E-01      0.544481E-02
      0.450000E-01      0.466882E-02
      0.500000E-01      0.404847E-02
      0.550000E-01      0.355927E-02
      0.600000E-01      0.317010E-02
      0.650000E-01      0.285223E-02
      0.700000E-01      0.258453E-02
      0.750000E-01      0.235466E-02
      0.800000E-01      0.215697E-02
      0.850000E-01      0.198883E-02
      0.900000E-01      0.184715E-02
      0.950000E-01      0.172644E-02
      0.100000          0.161889E-02
      0.105000          0.151608E-02
      0.110000          0.141133E-02
      0.115000          0.130166E-02
      0.120000          0.118849E-02
      0.125000          0.107680E-02
      0.130000          0.973209E-03
      0.135000          0.883638E-03
      0.140000          0.811353E-03
      0.145000          0.756108E-03
      0.150000          0.714510E-03
      0.155000          0.681377E-03
      0.160000          0.651530E-03
      0.165000          0.621354E-03
      0.170000          0.589662E-03
      0.175000          0.557630E-03
      0.180000          0.527965E-03
      0.185000          0.503666E-03
      0.190000          0.486840E-03
      0.195000          0.477956E-03
      0.200000          0.475713E-03
      0.205000          0.477475E-03
      0.210000          0.480054E-03
      0.215000          0.480553E-03
      0.220000          0.476998E-03
      0.225000          0.468614E-03
      0.230000          0.455745E-03
      0.235000          0.439503E-03
      0.240000          0.421325E-03
      0.245000          0.402583E-03
      0.250000          0.384327E-03
      0.255000          0.367217E-03
      0.260000          0.351570E-03
      0.265000          0.337482E-03
      0.270000          0.324947E-03
      0.275000          0.313924E-03
      0.280000          0.304358E-03
      0.285000          0.296155E-03
      0.290000          0.289150E-03
      0.295000          0.283092E-03
      0.300000          0.277653E-03
      0.305000          0.272475E-03
      0.310000          0.267220E-03
      0.315000          0.261628E-03
      0.320000          0.255550E-03
      0.325000          0.248961E-03
      0.330000          0.241933E-03
      0.335000          0.234599E-03
      0.340000          0.227094E-03
      0.345000          0.219519E-03
      0.350000          0.211910E-03
      0.355000          0.204250E-03
      0.360000          0.196500E-03
      0.365000          0.188658E-03
      0.370000          0.180805E-03
      0.375000          0.173137E-03
      0.380000          0.165949E-03
      0.385000          0.159574E-03
      0.390000          0.154293E-03
      0.395000          0.150236E-03
      0.400000          0.147305E-03
      0.405000          0.145163E-03
      0.410000          0.143279E-03
      0.415000          0.141049E-03
      0.420000          0.137936E-03
      0.425000          0.133605E-03
      0.430000          0.128010E-03
      0.435000          0.121397E-03
      0.440000          0.114233E-03
      0.445000          0.107083E-03
      0.450000          0.100468E-03
      0.455000          0.947489E-04
      0.460000          0.900687E-04
      0.465000          0.863641E-04
      0.470000          0.834290E-04
      0.475000          0.810051E-04
      0.480000          0.788642E-04
      0.485000          0.768565E-04
      0.490000          0.749174E-04
      0.495000          0.730385E-04
      0.500000          0.712258E-04
