 I_abs(s)[cm^-1]/c[mg/ml]
       0.00000          0.119731E-01
      0.500000E-02      0.116853E-01
      0.100000E-01      0.108767E-01
      0.150000E-01      0.969430E-02
      0.200000E-01      0.833451E-02
      0.250000E-01      0.698939E-02
      0.300000E-01      0.580136E-02
      0.350000E-01      0.484049E-02
      0.400000E-01      0.410818E-02
      0.450000E-01      0.356069E-02
      0.500000E-01      0.313942E-02
      0.550000E-01      0.279533E-02
      0.600000E-01      0.249994E-02
      0.650000E-01      0.224322E-02
      0.700000E-01      0.202397E-02
      0.750000E-01      0.184034E-02
      0.800000E-01      0.168546E-02
      0.850000E-01      0.154907E-02
      0.900000E-01      0.142241E-02
      0.950000E-01      0.130228E-02
      0.100000          0.119150E-02
      0.105000          0.109598E-02
      0.110000          0.102027E-02
      0.115000          0.964383E-03
      0.120000          0.923493E-03
      0.125000          0.890289E-03
      0.130000          0.858258E-03
      0.135000          0.824066E-03
      0.140000          0.787954E-03
      0.145000          0.752376E-03
      0.150000          0.719963E-03
      0.155000          0.692050E-03
      0.160000          0.668337E-03
      0.165000          0.647526E-03
      0.170000          0.628261E-03
      0.175000          0.609717E-03
      0.180000          0.591629E-03
      0.185000          0.573933E-03
      0.190000          0.556409E-03
      0.195000          0.538584E-03
      0.200000          0.519903E-03
      0.205000          0.499967E-03
      0.210000          0.478664E-03
      0.215000          0.456147E-03
      0.220000          0.432763E-03
      0.225000          0.409052E-03
      0.230000          0.385808E-03
      0.235000          0.364093E-03
      0.240000          0.345050E-03
      0.245000          0.329506E-03
      0.250000          0.317536E-03
      0.255000          0.308264E-03
      0.260000          0.300115E-03
      0.265000          0.291458E-03
      0.270000          0.281356E-03
      0.275000          0.270025E-03
      0.280000          0.258721E-03
      0.285000          0.249093E-03
      0.290000          0.242326E-03
      0.295000          0.238504E-03
      0.300000          0.236534E-03
      0.305000          0.234642E-03
      0.310000          0.231147E-03
      0.315000          0.225135E-03
      0.320000          0.216699E-03
      0.325000          0.206699E-03
      0.330000          0.196241E-03
      0.335000          0.186192E-03
      0.340000          0.176960E-03
      0.345000          0.168594E-03
      0.350000          0.161050E-03
      0.355000          0.154403E-03
      0.360000          0.148877E-03
      0.365000          0.144668E-03
      0.370000          0.141738E-03
      0.375000          0.139713E-03
      0.380000          0.137993E-03
      0.385000          0.136008E-03
      0.390000          0.133475E-03
      0.395000          0.130496E-03
      0.400000          0.127438E-03
      0.405000          0.124678E-03
      0.410000          0.122349E-03
      0.415000          0.120241E-03
      0.420000          0.117923E-03
      0.425000          0.114986E-03
      0.430000          0.111303E-03
      0.435000          0.107115E-03
      0.440000          0.102936E-03
      0.445000          0.992961E-04
      0.450000          0.964807E-04
      0.455000          0.943993E-04
      0.460000          0.926418E-04
      0.465000          0.906912E-04
      0.470000          0.881748E-04
      0.475000          0.850275E-04
      0.480000          0.814938E-04
      0.485000          0.779834E-04
      0.490000          0.748670E-04
      0.495000          0.723200E-04
      0.500000          0.702862E-04
