 I_abs(s)[cm^-1]/c[mg/ml]
       0.00000          0.136589E-01
      0.500000E-02      0.135570E-01
      0.100000E-01      0.132559E-01
      0.150000E-01      0.127698E-01
      0.200000E-01      0.121207E-01
      0.250000E-01      0.113376E-01
      0.300000E-01      0.104541E-01
      0.350000E-01      0.950641E-02
      0.400000E-01      0.853084E-02
      0.450000E-01      0.756179E-02
      0.500000E-01      0.662973E-02
      0.550000E-01      0.575976E-02
      0.600000E-01      0.497056E-02
      0.650000E-01      0.427399E-02
      0.700000E-01      0.367517E-02
      0.750000E-01      0.317306E-02
      0.800000E-01      0.276148E-02
      0.850000E-01      0.243034E-02
      0.900000E-01      0.216707E-02
      0.950000E-01      0.195802E-02
      0.100000          0.178971E-02
      0.105000          0.164994E-02
      0.110000          0.152855E-02
      0.115000          0.141785E-02
      0.120000          0.131277E-02
      0.125000          0.121072E-02
      0.130000          0.111118E-02
      0.135000          0.101522E-02
      0.140000          0.924835E-03
      0.145000          0.842400E-03
      0.150000          0.770110E-03
      0.155000          0.709581E-03
      0.160000          0.661596E-03
      0.165000          0.625992E-03
      0.170000          0.601711E-03
      0.175000          0.586955E-03
      0.180000          0.579431E-03
      0.185000          0.576624E-03
      0.190000          0.576086E-03
      0.195000          0.575665E-03
      0.200000          0.573692E-03
      0.205000          0.569075E-03
      0.210000          0.561324E-03
      0.215000          0.550489E-03
      0.220000          0.537060E-03
      0.225000          0.521810E-03
      0.230000          0.505645E-03
      0.235000          0.489444E-03
      0.240000          0.473944E-03
      0.245000          0.459647E-03
      0.250000          0.446787E-03
      0.255000          0.435329E-03
      0.260000          0.425011E-03
      0.265000          0.415415E-03
      0.270000          0.406044E-03
      0.275000          0.396414E-03
      0.280000          0.386121E-03
      0.285000          0.374896E-03
      0.290000          0.362638E-03
      0.295000          0.349418E-03
      0.300000          0.335456E-03
      0.305000          0.321087E-03
      0.310000          0.306711E-03
      0.315000          0.292736E-03
      0.320000          0.279532E-03
      0.325000          0.267392E-03
      0.330000          0.256500E-03
      0.335000          0.246925E-03
      0.340000          0.238625E-03
      0.345000          0.231463E-03
      0.350000          0.225238E-03
      0.355000          0.219715E-03
      0.360000          0.214658E-03
      0.365000          0.209860E-03
      0.370000          0.205164E-03
      0.375000          0.200479E-03
      0.380000          0.195776E-03
      0.385000          0.191087E-03
      0.390000          0.186493E-03
      0.395000          0.182098E-03
      0.400000          0.178019E-03
      0.405000          0.174355E-03
      0.410000          0.171181E-03
      0.415000          0.168531E-03
      0.420000          0.166394E-03
      0.425000          0.164715E-03
      0.430000          0.163402E-03
      0.435000          0.162335E-03
      0.440000          0.161383E-03
      0.445000          0.160414E-03
      0.450000          0.159313E-03
      0.455000          0.157987E-03
      0.460000          0.156378E-03
      0.465000          0.154460E-03
      0.470000          0.152246E-03
      0.475000          0.149776E-03
      0.480000          0.147110E-03
      0.485000          0.144325E-03
      0.490000          0.141496E-03
      0.495000          0.138694E-03
      0.500000          0.135974E-03
