 I_abs(s)[cm^-1]/c[mg/ml]
       0.00000          0.141718E-01
      0.500000E-02      0.140572E-01
      0.100000E-01      0.137202E-01
      0.150000E-01      0.131798E-01
      0.200000E-01      0.124660E-01
      0.250000E-01      0.116165E-01
      0.300000E-01      0.106734E-01
      0.350000E-01      0.967990E-02
      0.400000E-01      0.867639E-02
      0.450000E-01      0.769799E-02
      0.500000E-01      0.677255E-02
      0.550000E-01      0.591969E-02
      0.600000E-01      0.515082E-02
      0.650000E-01      0.447003E-02
      0.700000E-01      0.387546E-02
      0.750000E-01      0.336115E-02
      0.800000E-01      0.291874E-02
      0.850000E-01      0.253905E-02
      0.900000E-01      0.221327E-02
      0.950000E-01      0.193370E-02
      0.100000          0.169402E-02
      0.105000          0.148923E-02
      0.110000          0.131534E-02
      0.115000          0.116900E-02
      0.120000          0.104710E-02
      0.125000          0.946523E-03
      0.130000          0.864057E-03
      0.135000          0.796431E-03
      0.140000          0.740477E-03
      0.145000          0.693327E-03
      0.150000          0.652597E-03
      0.155000          0.616499E-03
      0.160000          0.583858E-03
      0.165000          0.554031E-03
      0.170000          0.526757E-03
      0.175000          0.501976E-03
      0.180000          0.479651E-03
      0.185000          0.459651E-03
      0.190000          0.441693E-03
      0.195000          0.425359E-03
      0.200000          0.410171E-03
      0.205000          0.395691E-03
      0.210000          0.381618E-03
      0.215000          0.367854E-03
      0.220000          0.354509E-03
      0.225000          0.341865E-03
      0.230000          0.330280E-03
      0.235000          0.320082E-03
      0.240000          0.311461E-03
      0.245000          0.304396E-03
      0.250000          0.298624E-03
      0.255000          0.293677E-03
      0.260000          0.288948E-03
      0.265000          0.283810E-03
      0.270000          0.277723E-03
      0.275000          0.270334E-03
      0.280000          0.261536E-03
      0.285000          0.251480E-03
      0.290000          0.240535E-03
      0.295000          0.229212E-03
      0.300000          0.218066E-03
      0.305000          0.207602E-03
      0.310000          0.198193E-03
      0.315000          0.190040E-03
      0.320000          0.183165E-03
      0.325000          0.177441E-03
      0.330000          0.172648E-03
      0.335000          0.168541E-03
      0.340000          0.164903E-03
      0.345000          0.161593E-03
      0.350000          0.158561E-03
      0.355000          0.155834E-03
      0.360000          0.153489E-03
      0.365000          0.151614E-03
      0.370000          0.150261E-03
      0.375000          0.149425E-03
      0.380000          0.149030E-03
      0.385000          0.148939E-03
      0.390000          0.148979E-03
      0.395000          0.148979E-03
      0.400000          0.148800E-03
      0.405000          0.148366E-03
      0.410000          0.147673E-03
      0.415000          0.146787E-03
      0.420000          0.145815E-03
      0.425000          0.144882E-03
      0.430000          0.144089E-03
      0.435000          0.143488E-03
      0.440000          0.143061E-03
      0.445000          0.142720E-03
      0.450000          0.142318E-03
      0.455000          0.141676E-03
      0.460000          0.140612E-03
      0.465000          0.138976E-03
      0.470000          0.136671E-03
      0.475000          0.133674E-03
      0.480000          0.130032E-03
      0.485000          0.125857E-03
      0.490000          0.121304E-03
      0.495000          0.116548E-03
      0.500000          0.111765E-03
