 I_abs(s)[cm^-1]/c[mg/ml]
       0.00000          0.147660E-01
      0.500000E-02      0.147050E-01
      0.100000E-01      0.145235E-01
      0.150000E-01      0.142260E-01
      0.200000E-01      0.138201E-01
      0.250000E-01      0.133156E-01
      0.300000E-01      0.127247E-01
      0.350000E-01      0.120610E-01
      0.400000E-01      0.113395E-01
      0.450000E-01      0.105756E-01
      0.500000E-01      0.978467E-02
      0.550000E-01      0.898177E-02
      0.600000E-01      0.818091E-02
      0.650000E-01      0.739482E-02
      0.700000E-01      0.663461E-02
      0.750000E-01      0.590959E-02
      0.800000E-01      0.522717E-02
      0.850000E-01      0.459283E-02
      0.900000E-01      0.401020E-02
      0.950000E-01      0.348119E-02
      0.100000          0.300620E-02
      0.105000          0.258431E-02
      0.110000          0.221354E-02
      0.115000          0.189112E-02
      0.120000          0.161366E-02
      0.125000          0.137740E-02
      0.130000          0.117843E-02
      0.135000          0.101274E-02
      0.140000          0.876444E-03
      0.145000          0.765788E-03
      0.150000          0.677240E-03
      0.155000          0.607515E-03
      0.160000          0.553582E-03
      0.165000          0.512674E-03
      0.170000          0.482275E-03
      0.175000          0.460117E-03
      0.180000          0.444168E-03
      0.185000          0.432629E-03
      0.190000          0.423931E-03
      0.195000          0.416730E-03
      0.200000          0.409914E-03
      0.205000          0.402597E-03
      0.210000          0.394118E-03
      0.215000          0.384037E-03
      0.220000          0.372119E-03
      0.225000          0.358320E-03
      0.230000          0.342762E-03
      0.235000          0.325704E-03
      0.240000          0.307512E-03
      0.245000          0.288623E-03
      0.250000          0.269509E-03
      0.255000          0.250648E-03
      0.260000          0.232489E-03
      0.265000          0.215433E-03
      0.270000          0.199809E-03
      0.275000          0.185864E-03
      0.280000          0.173758E-03
      0.285000          0.163564E-03
      0.290000          0.155273E-03
      0.295000          0.148805E-03
      0.300000          0.144022E-03
      0.305000          0.140744E-03
      0.310000          0.138762E-03
      0.315000          0.137855E-03
      0.320000          0.137801E-03
      0.325000          0.138389E-03
      0.330000          0.139426E-03
      0.335000          0.140742E-03
      0.340000          0.142196E-03
      0.345000          0.143668E-03
      0.350000          0.145069E-03
      0.355000          0.146328E-03
      0.360000          0.147394E-03
      0.365000          0.148232E-03
      0.370000          0.148819E-03
      0.375000          0.149138E-03
      0.380000          0.149180E-03
      0.385000          0.148939E-03
      0.390000          0.148415E-03
      0.395000          0.147608E-03
      0.400000          0.146523E-03
      0.405000          0.145169E-03
      0.410000          0.143559E-03
      0.415000          0.141711E-03
      0.420000          0.139648E-03
      0.425000          0.137399E-03
      0.430000          0.134998E-03
      0.435000          0.132482E-03
      0.440000          0.129894E-03
      0.445000          0.127274E-03
      0.450000          0.124666E-03
      0.455000          0.122110E-03
      0.460000          0.119643E-03
      0.465000          0.117298E-03
      0.470000          0.115098E-03
      0.475000          0.113062E-03
      0.480000          0.111200E-03
      0.485000          0.109511E-03
      0.490000          0.107990E-03
      0.495000          0.106621E-03
      0.500000          0.105384E-03
