 I_abs(s)[cm^-1]/c[mg/ml]
       0.00000          0.131933E-01
      0.500000E-02      0.130610E-01
      0.100000E-01      0.126723E-01
      0.150000E-01      0.120513E-01
      0.200000E-01      0.112355E-01
      0.250000E-01      0.102725E-01
      0.300000E-01      0.921559E-02
      0.350000E-01      0.811921E-02
      0.400000E-01      0.703460E-02
      0.450000E-01      0.600594E-02
      0.500000E-01      0.506765E-02
      0.550000E-01      0.424282E-02
      0.600000E-01      0.354295E-02
      0.650000E-01      0.296884E-02
      0.700000E-01      0.251240E-02
      0.750000E-01      0.215912E-02
      0.800000E-01      0.189070E-02
      0.850000E-01      0.168773E-02
      0.900000E-01      0.153182E-02
      0.950000E-01      0.140727E-02
      0.100000          0.130205E-02
      0.105000          0.120802E-02
      0.110000          0.112070E-02
      0.115000          0.103856E-02
      0.120000          0.962067E-03
      0.125000          0.892754E-03
      0.130000          0.832325E-03
      0.135000          0.782029E-03
      0.140000          0.742274E-03
      0.145000          0.712527E-03
      0.150000          0.691423E-03
      0.155000          0.677028E-03
      0.160000          0.667176E-03
      0.165000          0.659789E-03
      0.170000          0.653136E-03
      0.175000          0.645987E-03
      0.180000          0.637659E-03
      0.185000          0.627967E-03
      0.190000          0.617101E-03
      0.195000          0.605475E-03
      0.200000          0.593577E-03
      0.205000          0.581848E-03
      0.210000          0.570601E-03
      0.215000          0.559992E-03
      0.220000          0.550029E-03
      0.225000          0.540611E-03
      0.230000          0.531577E-03
      0.235000          0.522757E-03
      0.240000          0.514001E-03
      0.245000          0.505203E-03
      0.250000          0.496294E-03
      0.255000          0.487232E-03
      0.260000          0.477982E-03
      0.265000          0.468497E-03
      0.270000          0.458710E-03
      0.275000          0.448529E-03
      0.280000          0.437849E-03
      0.285000          0.426570E-03
      0.290000          0.414613E-03
      0.295000          0.401940E-03
      0.300000          0.388568E-03
      0.305000          0.374571E-03
      0.310000          0.360080E-03
      0.315000          0.345269E-03
      0.320000          0.330340E-03
      0.325000          0.315505E-03
      0.330000          0.300971E-03
      0.335000          0.286926E-03
      0.340000          0.273530E-03
      0.345000          0.260909E-03
      0.350000          0.249158E-03
      0.355000          0.238338E-03
      0.360000          0.228484E-03
      0.365000          0.219599E-03
      0.370000          0.211665E-03
      0.375000          0.204635E-03
      0.380000          0.198443E-03
      0.385000          0.193002E-03
      0.390000          0.188211E-03
      0.395000          0.183962E-03
      0.400000          0.180147E-03
      0.405000          0.176668E-03
      0.410000          0.173447E-03
      0.415000          0.170431E-03
      0.420000          0.167591E-03
      0.425000          0.164929E-03
      0.430000          0.162463E-03
      0.435000          0.160223E-03
      0.440000          0.158235E-03
      0.445000          0.156514E-03
      0.450000          0.155050E-03
      0.455000          0.153802E-03
      0.460000          0.152701E-03
      0.465000          0.151649E-03
      0.470000          0.150530E-03
      0.475000          0.149226E-03
      0.480000          0.147625E-03
      0.485000          0.145638E-03
      0.490000          0.143211E-03
      0.495000          0.140330E-03
      0.500000          0.137020E-03
