 I_abs(s)[cm^-1]/c[mg/ml]
       0.00000          0.143764E-01
      0.500000E-02      0.142952E-01
      0.100000E-01      0.140541E-01
      0.150000E-01      0.136608E-01
      0.200000E-01      0.131275E-01
      0.250000E-01      0.124705E-01
      0.300000E-01      0.117095E-01
      0.350000E-01      0.108668E-01
      0.400000E-01      0.996593E-02
      0.450000E-01      0.903125E-02
      0.500000E-01      0.808650E-02
      0.550000E-01      0.715407E-02
      0.600000E-01      0.625420E-02
      0.650000E-01      0.540429E-02
      0.700000E-01      0.461844E-02
      0.750000E-01      0.390717E-02
      0.800000E-01      0.327731E-02
      0.850000E-01      0.273209E-02
      0.900000E-01      0.227140E-02
      0.950000E-01      0.189218E-02
      0.100000          0.158888E-02
      0.105000          0.135406E-02
      0.110000          0.117895E-02
      0.115000          0.105406E-02
      0.120000          0.969676E-03
      0.125000          0.916406E-03
      0.130000          0.885537E-03
      0.135000          0.869353E-03
      0.140000          0.861336E-03
      0.145000          0.856269E-03
      0.150000          0.850254E-03
      0.155000          0.840644E-03
      0.160000          0.825916E-03
      0.165000          0.805507E-03
      0.170000          0.779606E-03
      0.175000          0.748962E-03
      0.180000          0.714672E-03
      0.185000          0.678011E-03
      0.190000          0.640273E-03
      0.195000          0.602655E-03
      0.200000          0.566169E-03
      0.205000          0.531596E-03
      0.210000          0.499464E-03
      0.215000          0.470059E-03
      0.220000          0.443448E-03
      0.225000          0.419524E-03
      0.230000          0.398051E-03
      0.235000          0.378714E-03
      0.240000          0.361164E-03
      0.245000          0.345061E-03
      0.250000          0.330096E-03
      0.255000          0.316020E-03
      0.260000          0.302649E-03
      0.265000          0.289866E-03
      0.270000          0.277620E-03
      0.275000          0.265910E-03
      0.280000          0.254772E-03
      0.285000          0.244270E-03
      0.290000          0.234472E-03
      0.295000          0.225447E-03
      0.300000          0.217245E-03
      0.305000          0.209897E-03
      0.310000          0.203406E-03
      0.315000          0.197748E-03
      0.320000          0.192874E-03
      0.325000          0.188709E-03
      0.330000          0.185159E-03
      0.335000          0.182117E-03
      0.340000          0.179469E-03
      0.345000          0.177097E-03
      0.350000          0.174887E-03
      0.355000          0.172732E-03
      0.360000          0.170537E-03
      0.365000          0.168223E-03
      0.370000          0.165726E-03
      0.375000          0.163005E-03
      0.380000          0.160034E-03
      0.385000          0.156810E-03
      0.390000          0.153348E-03
      0.395000          0.149680E-03
      0.400000          0.145852E-03
      0.405000          0.141925E-03
      0.410000          0.137967E-03
      0.415000          0.134050E-03
      0.420000          0.130248E-03
      0.425000          0.126635E-03
      0.430000          0.123274E-03
      0.435000          0.120221E-03
      0.440000          0.117519E-03
      0.445000          0.115194E-03
      0.450000          0.113257E-03
      0.455000          0.111703E-03
      0.460000          0.110510E-03
      0.465000          0.109641E-03
      0.470000          0.109046E-03
      0.475000          0.108664E-03
      0.480000          0.108430E-03
      0.485000          0.108273E-03
      0.490000          0.108124E-03
      0.495000          0.107917E-03
      0.500000          0.107593E-03
