 I_abs(s)[cm^-1]/c[mg/ml]
       0.00000          0.139375E-01
      0.500000E-02      0.138645E-01
      0.100000E-01      0.136482E-01
      0.150000E-01      0.132966E-01
      0.200000E-01      0.128221E-01
      0.250000E-01      0.122414E-01
      0.300000E-01      0.115741E-01
      0.350000E-01      0.108416E-01
      0.400000E-01      0.100661E-01
      0.450000E-01      0.926935E-02
      0.500000E-01      0.847165E-02
      0.550000E-01      0.769100E-02
      0.600000E-01      0.694244E-02
      0.650000E-01      0.623769E-02
      0.700000E-01      0.558498E-02
      0.750000E-01      0.498921E-02
      0.800000E-01      0.445218E-02
      0.850000E-01      0.397311E-02
      0.900000E-01      0.354917E-02
      0.950000E-01      0.317609E-02
      0.100000          0.284870E-02
      0.105000          0.256152E-02
      0.110000          0.230915E-02
      0.115000          0.208663E-02
      0.120000          0.188961E-02
      0.125000          0.171445E-02
      0.130000          0.155825E-02
      0.135000          0.141874E-02
      0.140000          0.129416E-02
      0.145000          0.118317E-02
      0.150000          0.108462E-02
      0.155000          0.997496E-03
      0.160000          0.920822E-03
      0.165000          0.853583E-03
      0.170000          0.794721E-03
      0.175000          0.743149E-03
      0.180000          0.697779E-03
      0.185000          0.657568E-03
      0.190000          0.621559E-03
      0.195000          0.588920E-03
      0.200000          0.558963E-03
      0.205000          0.531153E-03
      0.210000          0.505100E-03
      0.215000          0.480538E-03
      0.220000          0.457294E-03
      0.225000          0.435257E-03
      0.230000          0.414351E-03
      0.235000          0.394507E-03
      0.240000          0.375647E-03
      0.245000          0.357683E-03
      0.250000          0.340511E-03
      0.255000          0.324027E-03
      0.260000          0.308133E-03
      0.265000          0.292750E-03
      0.270000          0.277832E-03
      0.275000          0.263366E-03
      0.280000          0.249376E-03
      0.285000          0.235916E-03
      0.290000          0.223058E-03
      0.295000          0.210886E-03
      0.300000          0.199477E-03
      0.305000          0.188889E-03
      0.310000          0.179157E-03
      0.315000          0.170285E-03
      0.320000          0.162250E-03
      0.325000          0.154999E-03
      0.330000          0.148468E-03
      0.335000          0.142584E-03
      0.340000          0.137276E-03
      0.345000          0.132487E-03
      0.350000          0.128176E-03
      0.355000          0.124323E-03
      0.360000          0.120926E-03
      0.365000          0.117997E-03
      0.370000          0.115554E-03
      0.375000          0.113612E-03
      0.380000          0.112177E-03
      0.385000          0.111235E-03
      0.390000          0.110750E-03
      0.395000          0.110663E-03
      0.400000          0.110890E-03
      0.405000          0.111334E-03
      0.410000          0.111883E-03
      0.415000          0.112428E-03
      0.420000          0.112867E-03
      0.425000          0.113113E-03
      0.430000          0.113104E-03
      0.435000          0.112804E-03
      0.440000          0.112204E-03
      0.445000          0.111324E-03
      0.450000          0.110201E-03
      0.455000          0.108892E-03
      0.460000          0.107459E-03
      0.465000          0.105963E-03
      0.470000          0.104459E-03
      0.475000          0.102988E-03
      0.480000          0.101576E-03
      0.485000          0.100227E-03
      0.490000          0.989294E-04
      0.495000          0.976571E-04
      0.500000          0.963724E-04
