 I_abs(s)[cm^-1]/c[mg/ml]
       0.00000          0.145348E-01
      0.500000E-02      0.144734E-01
      0.100000E-01      0.142906E-01
      0.150000E-01      0.139911E-01
      0.200000E-01      0.135820E-01
      0.250000E-01      0.130733E-01
      0.300000E-01      0.124770E-01
      0.350000E-01      0.118067E-01
      0.400000E-01      0.110775E-01
      0.450000E-01      0.103050E-01
      0.500000E-01      0.950485E-02
      0.550000E-01      0.869265E-02
      0.600000E-01      0.788298E-02
      0.650000E-01      0.708926E-02
      0.700000E-01      0.632337E-02
      0.750000E-01      0.559536E-02
      0.800000E-01      0.491333E-02
      0.850000E-01      0.428337E-02
      0.900000E-01      0.370953E-02
      0.950000E-01      0.319398E-02
      0.100000          0.273708E-02
      0.105000          0.233767E-02
      0.110000          0.199330E-02
      0.115000          0.170043E-02
      0.120000          0.145479E-02
      0.125000          0.125161E-02
      0.130000          0.108584E-02
      0.135000          0.952399E-03
      0.140000          0.846363E-03
      0.145000          0.763085E-03
      0.150000          0.698322E-03
      0.155000          0.648297E-03
      0.160000          0.609739E-03
      0.165000          0.579883E-03
      0.170000          0.556456E-03
      0.175000          0.537636E-03
      0.180000          0.522003E-03
      0.185000          0.508484E-03
      0.190000          0.496290E-03
      0.195000          0.484859E-03
      0.200000          0.473807E-03
      0.205000          0.462873E-03
      0.210000          0.451891E-03
      0.215000          0.440751E-03
      0.220000          0.429385E-03
      0.225000          0.417746E-03
      0.230000          0.405802E-03
      0.235000          0.393532E-03
      0.240000          0.380929E-03
      0.245000          0.367994E-03
      0.250000          0.354746E-03
      0.255000          0.341220E-03
      0.260000          0.327473E-03
      0.265000          0.313583E-03
      0.270000          0.299647E-03
      0.275000          0.285783E-03
      0.280000          0.272124E-03
      0.285000          0.258812E-03
      0.290000          0.245999E-03
      0.295000          0.233831E-03
      0.300000          0.222451E-03
      0.305000          0.211986E-03
      0.310000          0.202545E-03
      0.315000          0.194209E-03
      0.320000          0.187032E-03
      0.325000          0.181034E-03
      0.330000          0.176200E-03
      0.335000          0.172481E-03
      0.340000          0.169795E-03
      0.345000          0.168030E-03
      0.350000          0.167046E-03
      0.355000          0.166685E-03
      0.360000          0.166775E-03
      0.365000          0.167136E-03
      0.370000          0.167591E-03
      0.375000          0.167968E-03
      0.380000          0.168115E-03
      0.385000          0.167898E-03
      0.390000          0.167210E-03
      0.395000          0.165974E-03
      0.400000          0.164145E-03
      0.405000          0.161711E-03
      0.410000          0.158689E-03
      0.415000          0.155127E-03
      0.420000          0.151095E-03
      0.425000          0.146684E-03
      0.430000          0.142000E-03
      0.435000          0.137154E-03
      0.440000          0.132262E-03
      0.445000          0.127432E-03
      0.450000          0.122768E-03
      0.455000          0.118356E-03
      0.460000          0.114269E-03
      0.465000          0.110558E-03
      0.470000          0.107257E-03
      0.475000          0.104380E-03
      0.480000          0.101920E-03
      0.485000          0.998567E-04
      0.490000          0.981554E-04
      0.495000          0.967706E-04
      0.500000          0.956503E-04
