 I_abs(s)[cm^-1]/c[mg/ml]
       0.00000          0.145745E-01
      0.500000E-02      0.144863E-01
      0.100000E-01      0.142249E-01
      0.150000E-01      0.137998E-01
      0.200000E-01      0.132264E-01
      0.250000E-01      0.125248E-01
      0.300000E-01      0.117191E-01
      0.350000E-01      0.108358E-01
      0.400000E-01      0.990274E-02
      0.450000E-01      0.894729E-02
      0.500000E-01      0.799547E-02
      0.550000E-01      0.707062E-02
      0.600000E-01      0.619258E-02
      0.650000E-01      0.537704E-02
      0.700000E-01      0.463522E-02
      0.750000E-01      0.397385E-02
      0.800000E-01      0.339540E-02
      0.850000E-01      0.289855E-02
      0.900000E-01      0.247882E-02
      0.950000E-01      0.212935E-02
      0.100000          0.184171E-02
      0.105000          0.160665E-02
      0.110000          0.141487E-02
      0.115000          0.125759E-02
      0.120000          0.112706E-02
      0.125000          0.101678E-02
      0.130000          0.921731E-03
      0.135000          0.838305E-03
      0.140000          0.764198E-03
      0.145000          0.698186E-03
      0.150000          0.639845E-03
      0.155000          0.589246E-03
      0.160000          0.546670E-03
      0.165000          0.512356E-03
      0.170000          0.486312E-03
      0.175000          0.468190E-03
      0.180000          0.457241E-03
      0.185000          0.452332E-03
      0.190000          0.452017E-03
      0.195000          0.454660E-03
      0.200000          0.458564E-03
      0.205000          0.462119E-03
      0.210000          0.463927E-03
      0.215000          0.462904E-03
      0.220000          0.458351E-03
      0.225000          0.449980E-03
      0.230000          0.437901E-03
      0.235000          0.422577E-03
      0.240000          0.404745E-03
      0.245000          0.385330E-03
      0.250000          0.365333E-03
      0.255000          0.345741E-03
      0.260000          0.327437E-03
      0.265000          0.311128E-03
      0.270000          0.297302E-03
      0.275000          0.286204E-03
      0.280000          0.277842E-03
      0.285000          0.272006E-03
      0.290000          0.268314E-03
      0.295000          0.266258E-03
      0.300000          0.265262E-03
      0.305000          0.264740E-03
      0.310000          0.264142E-03
      0.315000          0.262996E-03
      0.320000          0.260942E-03
      0.325000          0.257737E-03
      0.330000          0.253272E-03
      0.335000          0.247553E-03
      0.340000          0.240691E-03
      0.345000          0.232877E-03
      0.350000          0.224357E-03
      0.355000          0.215404E-03
      0.360000          0.206296E-03
      0.365000          0.197290E-03
      0.370000          0.188612E-03
      0.375000          0.180438E-03
      0.380000          0.172898E-03
      0.385000          0.166067E-03
      0.390000          0.159974E-03
      0.395000          0.154606E-03
      0.400000          0.149918E-03
      0.405000          0.145842E-03
      0.410000          0.142297E-03
      0.415000          0.139195E-03
      0.420000          0.136451E-03
      0.425000          0.133988E-03
      0.430000          0.131737E-03
      0.435000          0.129644E-03
      0.440000          0.127665E-03
      0.445000          0.125771E-03
      0.450000          0.123941E-03
      0.455000          0.122162E-03
      0.460000          0.120427E-03
      0.465000          0.118733E-03
      0.470000          0.117076E-03
      0.475000          0.115454E-03
      0.480000          0.113861E-03
      0.485000          0.112290E-03
      0.490000          0.110732E-03
      0.495000          0.109172E-03
      0.500000          0.107598E-03
