 I_abs(s)[cm^-1]/c[mg/ml]
       0.00000          0.141013E-01
      0.500000E-02      0.140369E-01
      0.100000E-01      0.138454E-01
      0.150000E-01      0.135316E-01
      0.200000E-01      0.131036E-01
      0.250000E-01      0.125720E-01
      0.300000E-01      0.119499E-01
      0.350000E-01      0.112522E-01
      0.400000E-01      0.104953E-01
      0.450000E-01      0.969625E-02
      0.500000E-01      0.887225E-02
      0.550000E-01      0.804021E-02
      0.600000E-01      0.721614E-02
      0.650000E-01      0.641466E-02
      0.700000E-01      0.564865E-02
      0.750000E-01      0.492896E-02
      0.800000E-01      0.426415E-02
      0.850000E-01      0.366049E-02
      0.900000E-01      0.312185E-02
      0.950000E-01      0.264988E-02
      0.100000          0.224413E-02
      0.105000          0.190229E-02
      0.110000          0.162049E-02
      0.115000          0.139362E-02
      0.120000          0.121566E-02
      0.125000          0.108004E-02
      0.130000          0.979906E-03
      0.135000          0.908477E-03
      0.140000          0.859261E-03
      0.145000          0.826273E-03
      0.150000          0.804194E-03
      0.155000          0.788478E-03
      0.160000          0.775408E-03
      0.165000          0.762106E-03
      0.170000          0.746506E-03
      0.175000          0.727294E-03
      0.180000          0.703813E-03
      0.185000          0.675969E-03
      0.190000          0.644108E-03
      0.195000          0.608905E-03
      0.200000          0.571253E-03
      0.205000          0.532158E-03
      0.210000          0.492653E-03
      0.215000          0.453723E-03
      0.220000          0.416249E-03
      0.225000          0.380971E-03
      0.230000          0.348462E-03
      0.235000          0.319119E-03
      0.240000          0.293170E-03
      0.245000          0.270683E-03
      0.250000          0.251586E-03
      0.255000          0.235696E-03
      0.260000          0.222742E-03
      0.265000          0.212391E-03
      0.270000          0.204278E-03
      0.275000          0.198023E-03
      0.280000          0.193255E-03
      0.285000          0.189625E-03
      0.290000          0.186818E-03
      0.295000          0.184558E-03
      0.300000          0.182617E-03
      0.305000          0.180809E-03
      0.310000          0.178996E-03
      0.315000          0.177077E-03
      0.320000          0.174988E-03
      0.325000          0.172696E-03
      0.330000          0.170190E-03
      0.335000          0.167480E-03
      0.340000          0.164590E-03
      0.345000          0.161550E-03
      0.350000          0.158396E-03
      0.355000          0.155166E-03
      0.360000          0.151897E-03
      0.365000          0.148623E-03
      0.370000          0.145375E-03
      0.375000          0.142178E-03
      0.380000          0.139057E-03
      0.385000          0.136028E-03
      0.390000          0.133107E-03
      0.395000          0.130308E-03
      0.400000          0.127641E-03
      0.405000          0.125117E-03
      0.410000          0.122743E-03
      0.415000          0.120529E-03
      0.420000          0.118481E-03
      0.425000          0.116607E-03
      0.430000          0.114913E-03
      0.435000          0.113402E-03
      0.440000          0.112074E-03
      0.445000          0.110930E-03
      0.450000          0.109961E-03
      0.455000          0.109159E-03
      0.460000          0.108509E-03
      0.465000          0.107991E-03
      0.470000          0.107581E-03
      0.475000          0.107252E-03
      0.480000          0.106972E-03
      0.485000          0.106711E-03
      0.490000          0.106434E-03
      0.495000          0.106109E-03
      0.500000          0.105709E-03
