 I_abs(s)[cm^-1]/c[mg/ml]
       0.00000          0.141718E-01
      0.500000E-02      0.141053E-01
      0.100000E-01      0.139077E-01
      0.150000E-01      0.135844E-01
      0.200000E-01      0.131440E-01
      0.250000E-01      0.125981E-01
      0.300000E-01      0.119609E-01
      0.350000E-01      0.112485E-01
      0.400000E-01      0.104782E-01
      0.450000E-01      0.966799E-02
      0.500000E-01      0.883581E-02
      0.550000E-01      0.799899E-02
      0.600000E-01      0.717365E-02
      0.650000E-01      0.637422E-02
      0.700000E-01      0.561307E-02
      0.750000E-01      0.490027E-02
      0.800000E-01      0.424342E-02
      0.850000E-01      0.364765E-02
      0.900000E-01      0.311569E-02
      0.950000E-01      0.264808E-02
      0.100000          0.224338E-02
      0.105000          0.189852E-02
      0.110000          0.160914E-02
      0.115000          0.136997E-02
      0.120000          0.117514E-02
      0.125000          0.101856E-02
      0.130000          0.894194E-03
      0.135000          0.796305E-03
      0.140000          0.719652E-03
      0.145000          0.659613E-03
      0.150000          0.612269E-03
      0.155000          0.574424E-03
      0.160000          0.543585E-03
      0.165000          0.517904E-03
      0.170000          0.496098E-03
      0.175000          0.477347E-03
      0.180000          0.461189E-03
      0.185000          0.447413E-03
      0.190000          0.435963E-03
      0.195000          0.426854E-03
      0.200000          0.420103E-03
      0.205000          0.415680E-03
      0.210000          0.413478E-03
      0.215000          0.413297E-03
      0.220000          0.414844E-03
      0.225000          0.417747E-03
      0.230000          0.421571E-03
      0.235000          0.425850E-03
      0.240000          0.430106E-03
      0.245000          0.433882E-03
      0.250000          0.436765E-03
      0.255000          0.438401E-03
      0.260000          0.438514E-03
      0.265000          0.436911E-03
      0.270000          0.433485E-03
      0.275000          0.428214E-03
      0.280000          0.421152E-03
      0.285000          0.412422E-03
      0.290000          0.402200E-03
      0.295000          0.390703E-03
      0.300000          0.378177E-03
      0.305000          0.364879E-03
      0.310000          0.351069E-03
      0.315000          0.336998E-03
      0.320000          0.322899E-03
      0.325000          0.308979E-03
      0.330000          0.295417E-03
      0.335000          0.282360E-03
      0.340000          0.269921E-03
      0.345000          0.258183E-03
      0.350000          0.247196E-03
      0.355000          0.236984E-03
      0.360000          0.227547E-03
      0.365000          0.218865E-03
      0.370000          0.210902E-03
      0.375000          0.203612E-03
      0.380000          0.196939E-03
      0.385000          0.190825E-03
      0.390000          0.185209E-03
      0.395000          0.180034E-03
      0.400000          0.175244E-03
      0.405000          0.170791E-03
      0.410000          0.166631E-03
      0.415000          0.162727E-03
      0.420000          0.159047E-03
      0.425000          0.155567E-03
      0.430000          0.152267E-03
      0.435000          0.149131E-03
      0.440000          0.146147E-03
      0.445000          0.143305E-03
      0.450000          0.140595E-03
      0.455000          0.138011E-03
      0.460000          0.135543E-03
      0.465000          0.133184E-03
      0.470000          0.130923E-03
      0.475000          0.128751E-03
      0.480000          0.126656E-03
      0.485000          0.124626E-03
      0.490000          0.122651E-03
      0.495000          0.120718E-03
      0.500000          0.118817E-03
