 I_abs(s)[cm^-1]/c[mg/ml]
       0.00000          0.139686E-01
      0.500000E-02      0.138846E-01
      0.100000E-01      0.136357E-01
      0.150000E-01      0.132316E-01
      0.200000E-01      0.126873E-01
      0.250000E-01      0.120229E-01
      0.300000E-01      0.112619E-01
      0.350000E-01      0.104298E-01
      0.400000E-01      0.955327E-02
      0.450000E-01      0.865792E-02
      0.500000E-01      0.776769E-02
      0.550000E-01      0.690359E-02
      0.600000E-01      0.608299E-02
      0.650000E-01      0.531924E-02
      0.700000E-01      0.462149E-02
      0.750000E-01      0.399490E-02
      0.800000E-01      0.344101E-02
      0.850000E-01      0.295831E-02
      0.900000E-01      0.254291E-02
      0.950000E-01      0.218923E-02
      0.100000          0.189070E-02
      0.105000          0.164032E-02
      0.110000          0.143121E-02
      0.115000          0.125691E-02
      0.120000          0.111168E-02
      0.125000          0.990577E-03
      0.130000          0.889473E-03
      0.135000          0.805029E-03
      0.140000          0.734574E-03
      0.145000          0.675985E-03
      0.150000          0.627566E-03
      0.155000          0.587932E-03
      0.160000          0.555924E-03
      0.165000          0.530537E-03
      0.170000          0.510883E-03
      0.175000          0.496162E-03
      0.180000          0.485650E-03
      0.185000          0.478686E-03
      0.190000          0.474674E-03
      0.195000          0.473065E-03
      0.200000          0.473356E-03
      0.205000          0.475070E-03
      0.210000          0.477755E-03
      0.215000          0.480967E-03
      0.220000          0.484276E-03
      0.225000          0.487264E-03
      0.230000          0.489538E-03
      0.235000          0.490741E-03
      0.240000          0.490573E-03
      0.245000          0.488799E-03
      0.250000          0.485270E-03
      0.255000          0.479924E-03
      0.260000          0.472786E-03
      0.265000          0.463964E-03
      0.270000          0.453630E-03
      0.275000          0.442005E-03
      0.280000          0.429337E-03
      0.285000          0.415876E-03
      0.290000          0.401860E-03
      0.295000          0.387501E-03
      0.300000          0.372972E-03
      0.305000          0.358410E-03
      0.310000          0.343918E-03
      0.315000          0.329570E-03
      0.320000          0.315422E-03
      0.325000          0.301522E-03
      0.330000          0.287918E-03
      0.335000          0.274665E-03
      0.340000          0.261826E-03
      0.345000          0.249475E-03
      0.350000          0.237688E-03
      0.355000          0.226540E-03
      0.360000          0.216101E-03
      0.365000          0.206425E-03
      0.370000          0.197546E-03
      0.375000          0.189477E-03
      0.380000          0.182207E-03
      0.385000          0.175704E-03
      0.390000          0.169918E-03
      0.395000          0.164790E-03
      0.400000          0.160251E-03
      0.405000          0.156237E-03
      0.410000          0.152685E-03
      0.415000          0.149542E-03
      0.420000          0.146767E-03
      0.425000          0.144327E-03
      0.430000          0.142198E-03
      0.435000          0.140362E-03
      0.440000          0.138804E-03
      0.445000          0.137509E-03
      0.450000          0.136458E-03
      0.455000          0.135626E-03
      0.460000          0.134983E-03
      0.465000          0.134492E-03
      0.470000          0.134110E-03
      0.475000          0.133791E-03
      0.480000          0.133488E-03
      0.485000          0.133152E-03
      0.490000          0.132741E-03
      0.495000          0.132212E-03
      0.500000          0.131533E-03
