 I_abs(s)[cm^-1]/c[mg/ml]
       0.00000          0.144872E-01
      0.500000E-02      0.144412E-01
      0.100000E-01      0.143039E-01
      0.150000E-01      0.140779E-01
      0.200000E-01      0.137672E-01
      0.250000E-01      0.133772E-01
      0.300000E-01      0.129149E-01
      0.350000E-01      0.123882E-01
      0.400000E-01      0.118058E-01
      0.450000E-01      0.111775E-01
      0.500000E-01      0.105131E-01
      0.550000E-01      0.982303E-02
      0.600000E-01      0.911733E-02
      0.650000E-01      0.840596E-02
      0.700000E-01      0.769833E-02
      0.750000E-01      0.700321E-02
      0.800000E-01      0.632850E-02
      0.850000E-01      0.568115E-02
      0.900000E-01      0.506702E-02
      0.950000E-01      0.449086E-02
      0.100000          0.395627E-02
      0.105000          0.346568E-02
      0.110000          0.302046E-02
      0.115000          0.262091E-02
      0.120000          0.226640E-02
      0.125000          0.195547E-02
      0.130000          0.168596E-02
      0.135000          0.145513E-02
      0.140000          0.125981E-02
      0.145000          0.109652E-02
      0.150000          0.961621E-03
      0.155000          0.851430E-03
      0.160000          0.762311E-03
      0.165000          0.690783E-03
      0.170000          0.633593E-03
      0.175000          0.587773E-03
      0.180000          0.550684E-03
      0.185000          0.520040E-03
      0.190000          0.493920E-03
      0.195000          0.470759E-03
      0.200000          0.449340E-03
      0.205000          0.428760E-03
      0.210000          0.408404E-03
      0.215000          0.387904E-03
      0.220000          0.367100E-03
      0.225000          0.345998E-03
      0.230000          0.324728E-03
      0.235000          0.303509E-03
      0.240000          0.282612E-03
      0.245000          0.262330E-03
      0.250000          0.242955E-03
      0.255000          0.224754E-03
      0.260000          0.207957E-03
      0.265000          0.192748E-03
      0.270000          0.179253E-03
      0.275000          0.167545E-03
      0.280000          0.157644E-03
      0.285000          0.149516E-03
      0.290000          0.143087E-03
      0.295000          0.138243E-03
      0.300000          0.134843E-03
      0.305000          0.132723E-03
      0.310000          0.131708E-03
      0.315000          0.131614E-03
      0.320000          0.132261E-03
      0.325000          0.133471E-03
      0.330000          0.135080E-03
      0.335000          0.136934E-03
      0.340000          0.138897E-03
      0.345000          0.140848E-03
      0.350000          0.142685E-03
      0.355000          0.144323E-03
      0.360000          0.145693E-03
      0.365000          0.146743E-03
      0.370000          0.147436E-03
      0.375000          0.147747E-03
      0.380000          0.147663E-03
      0.385000          0.147183E-03
      0.390000          0.146312E-03
      0.395000          0.145067E-03
      0.400000          0.143470E-03
      0.405000          0.141547E-03
      0.410000          0.139331E-03
      0.415000          0.136859E-03
      0.420000          0.134170E-03
      0.425000          0.131306E-03
      0.430000          0.128310E-03
      0.435000          0.125226E-03
      0.440000          0.122098E-03
      0.445000          0.118968E-03
      0.450000          0.115878E-03
      0.455000          0.112864E-03
      0.460000          0.109963E-03
      0.465000          0.107204E-03
      0.470000          0.104613E-03
      0.475000          0.102211E-03
      0.480000          0.100012E-03
      0.485000          0.980245E-04
      0.490000          0.962522E-04
      0.495000          0.946919E-04
      0.500000          0.933354E-04
