 I_abs(s)[cm^-1]/c[mg/ml]
       0.00000          0.143290E-01
      0.500000E-02      0.142723E-01
      0.100000E-01      0.141035E-01
      0.150000E-01      0.138266E-01
      0.200000E-01      0.134483E-01
      0.250000E-01      0.129775E-01
      0.300000E-01      0.124249E-01
      0.350000E-01      0.118029E-01
      0.400000E-01      0.111249E-01
      0.450000E-01      0.104048E-01
      0.500000E-01      0.965678E-02
      0.550000E-01      0.889451E-02
      0.600000E-01      0.813102E-02
      0.650000E-01      0.737826E-02
      0.700000E-01      0.664684E-02
      0.750000E-01      0.594582E-02
      0.800000E-01      0.528262E-02
      0.850000E-01      0.466294E-02
      0.900000E-01      0.409086E-02
      0.950000E-01      0.356885E-02
      0.100000          0.309796E-02
      0.105000          0.267794E-02
      0.110000          0.230749E-02
      0.115000          0.198439E-02
      0.120000          0.170575E-02
      0.125000          0.146817E-02
      0.130000          0.126793E-02
      0.135000          0.110114E-02
      0.140000          0.963840E-03
      0.145000          0.852173E-03
      0.150000          0.762415E-03
      0.155000          0.691065E-03
      0.160000          0.634892E-03
      0.165000          0.590968E-03
      0.170000          0.556682E-03
      0.175000          0.529758E-03
      0.180000          0.508243E-03
      0.185000          0.490506E-03
      0.190000          0.475218E-03
      0.195000          0.461331E-03
      0.200000          0.448053E-03
      0.205000          0.434818E-03
      0.210000          0.421257E-03
      0.215000          0.407160E-03
      0.220000          0.392449E-03
      0.225000          0.377145E-03
      0.230000          0.361341E-03
      0.235000          0.345172E-03
      0.240000          0.328801E-03
      0.245000          0.312397E-03
      0.250000          0.296128E-03
      0.255000          0.280147E-03
      0.260000          0.264595E-03
      0.265000          0.249596E-03
      0.270000          0.235260E-03
      0.275000          0.221682E-03
      0.280000          0.208951E-03
      0.285000          0.197143E-03
      0.290000          0.186330E-03
      0.295000          0.176574E-03
      0.300000          0.167928E-03
      0.305000          0.160433E-03
      0.310000          0.154111E-03
      0.315000          0.148966E-03
      0.320000          0.144976E-03
      0.325000          0.142097E-03
      0.330000          0.140253E-03
      0.335000          0.139346E-03
      0.340000          0.139250E-03
      0.345000          0.139823E-03
      0.350000          0.140908E-03
      0.355000          0.142340E-03
      0.360000          0.143955E-03
      0.365000          0.145596E-03
      0.370000          0.147120E-03
      0.375000          0.148405E-03
      0.380000          0.149352E-03
      0.385000          0.149887E-03
      0.390000          0.149967E-03
      0.395000          0.149571E-03
      0.400000          0.148708E-03
      0.405000          0.147402E-03
      0.410000          0.145698E-03
      0.415000          0.143650E-03
      0.420000          0.141320E-03
      0.425000          0.138774E-03
      0.430000          0.136073E-03
      0.435000          0.133277E-03
      0.440000          0.130437E-03
      0.445000          0.127597E-03
      0.450000          0.124793E-03
      0.455000          0.122052E-03
      0.460000          0.119393E-03
      0.465000          0.116832E-03
      0.470000          0.114378E-03
      0.475000          0.112038E-03
      0.480000          0.109817E-03
      0.485000          0.107720E-03
      0.490000          0.105751E-03
      0.495000          0.103915E-03
      0.500000          0.102216E-03
