 I_abs(s)[cm^-1]/c[mg/ml]
       0.00000          0.143606E-01
      0.500000E-02      0.142927E-01
      0.100000E-01      0.140908E-01
      0.150000E-01      0.137607E-01
      0.200000E-01      0.133115E-01
      0.250000E-01      0.127553E-01
      0.300000E-01      0.121069E-01
      0.350000E-01      0.113831E-01
      0.400000E-01      0.106020E-01
      0.450000E-01      0.978206E-02
      0.500000E-01      0.894174E-02
      0.550000E-01      0.809868E-02
      0.600000E-01      0.726915E-02
      0.650000E-01      0.646752E-02
      0.700000E-01      0.570594E-02
      0.750000E-01      0.499408E-02
      0.800000E-01      0.433904E-02
      0.850000E-01      0.374534E-02
      0.900000E-01      0.321509E-02
      0.950000E-01      0.274818E-02
      0.100000          0.234263E-02
      0.105000          0.199491E-02
      0.110000          0.170035E-02
      0.115000          0.145351E-02
      0.120000          0.124856E-02
      0.125000          0.107961E-02
      0.130000          0.940973E-03
      0.135000          0.827407E-03
      0.140000          0.734259E-03
      0.145000          0.657561E-03
      0.150000          0.594057E-03
      0.155000          0.541190E-03
      0.160000          0.497041E-03
      0.165000          0.460233E-03
      0.170000          0.429828E-03
      0.175000          0.405209E-03
      0.180000          0.385967E-03
      0.185000          0.371800E-03
      0.190000          0.362425E-03
      0.195000          0.357518E-03
      0.200000          0.356672E-03
      0.205000          0.359375E-03
      0.210000          0.365013E-03
      0.215000          0.372885E-03
      0.220000          0.382231E-03
      0.225000          0.392271E-03
      0.230000          0.402240E-03
      0.235000          0.411429E-03
      0.240000          0.419215E-03
      0.245000          0.425091E-03
      0.250000          0.428681E-03
      0.255000          0.429749E-03
      0.260000          0.428198E-03
      0.265000          0.424063E-03
      0.270000          0.417491E-03
      0.275000          0.408727E-03
      0.280000          0.398083E-03
      0.285000          0.385918E-03
      0.290000          0.372611E-03
      0.295000          0.358540E-03
      0.300000          0.344063E-03
      0.305000          0.329500E-03
      0.310000          0.315127E-03
      0.315000          0.301164E-03
      0.320000          0.287775E-03
      0.325000          0.275070E-03
      0.330000          0.263106E-03
      0.335000          0.251898E-03
      0.340000          0.241424E-03
      0.345000          0.231632E-03
      0.350000          0.222456E-03
      0.355000          0.213815E-03
      0.360000          0.205631E-03
      0.365000          0.197827E-03
      0.370000          0.190338E-03
      0.375000          0.183111E-03
      0.380000          0.176109E-03
      0.385000          0.169311E-03
      0.390000          0.162712E-03
      0.395000          0.156320E-03
      0.400000          0.150155E-03
      0.405000          0.144243E-03
      0.410000          0.138618E-03
      0.415000          0.133314E-03
      0.420000          0.128362E-03
      0.425000          0.123790E-03
      0.430000          0.119619E-03
      0.435000          0.115862E-03
      0.440000          0.112521E-03
      0.445000          0.109591E-03
      0.450000          0.107055E-03
      0.455000          0.104891E-03
      0.460000          0.103066E-03
      0.465000          0.101544E-03
      0.470000          0.100285E-03
      0.475000          0.992468E-04
      0.480000          0.983857E-04
      0.485000          0.976600E-04
      0.490000          0.970298E-04
      0.495000          0.964584E-04
      0.500000          0.959131E-04
