 I_abs(s)[cm^-1]/c[mg/ml]
       0.00000          0.139297E-01
      0.500000E-02      0.138576E-01
      0.100000E-01      0.136435E-01
      0.150000E-01      0.132934E-01
      0.200000E-01      0.128171E-01
      0.250000E-01      0.122278E-01
      0.300000E-01      0.115413E-01
      0.350000E-01      0.107758E-01
      0.400000E-01      0.995073E-02
      0.450000E-01      0.908602E-02
      0.500000E-01      0.820168E-02
      0.550000E-01      0.731682E-02
      0.600000E-01      0.644916E-02
      0.650000E-01      0.561447E-02
      0.700000E-01      0.482619E-02
      0.750000E-01      0.409517E-02
      0.800000E-01      0.342956E-02
      0.850000E-01      0.283479E-02
      0.900000E-01      0.231369E-02
      0.950000E-01      0.186669E-02
      0.100000          0.149211E-02
      0.105000          0.118645E-02
      0.110000          0.944814E-03
      0.115000          0.761209E-03
      0.120000          0.628929E-03
      0.125000          0.540874E-03
      0.130000          0.489839E-03
      0.135000          0.468761E-03
      0.140000          0.470919E-03
      0.145000          0.490090E-03
      0.150000          0.520660E-03
      0.155000          0.557697E-03
      0.160000          0.596988E-03
      0.165000          0.635052E-03
      0.170000          0.669128E-03
      0.175000          0.697142E-03
      0.180000          0.717665E-03
      0.185000          0.729857E-03
      0.190000          0.733404E-03
      0.195000          0.728448E-03
      0.200000          0.715516E-03
      0.205000          0.695438E-03
      0.210000          0.669277E-03
      0.215000          0.638248E-03
      0.220000          0.603648E-03
      0.225000          0.566789E-03
      0.230000          0.528934E-03
      0.235000          0.491249E-03
      0.240000          0.454761E-03
      0.245000          0.420326E-03
      0.250000          0.388615E-03
      0.255000          0.360106E-03
      0.260000          0.335086E-03
      0.265000          0.313666E-03
      0.270000          0.295802E-03
      0.275000          0.281319E-03
      0.280000          0.269938E-03
      0.285000          0.261308E-03
      0.290000          0.255028E-03
      0.295000          0.250677E-03
      0.300000          0.247832E-03
      0.305000          0.246086E-03
      0.310000          0.245059E-03
      0.315000          0.244411E-03
      0.320000          0.243840E-03
      0.325000          0.243092E-03
      0.330000          0.241959E-03
      0.335000          0.240276E-03
      0.340000          0.237925E-03
      0.345000          0.234828E-03
      0.350000          0.230949E-03
      0.355000          0.226290E-03
      0.360000          0.220890E-03
      0.365000          0.214819E-03
      0.370000          0.208178E-03
      0.375000          0.201090E-03
      0.380000          0.193695E-03
      0.385000          0.186144E-03
      0.390000          0.178593E-03
      0.395000          0.171191E-03
      0.400000          0.164074E-03
      0.405000          0.157362E-03
      0.410000          0.151147E-03
      0.415000          0.145497E-03
      0.420000          0.140449E-03
      0.425000          0.136009E-03
      0.430000          0.132161E-03
      0.435000          0.128863E-03
      0.440000          0.126057E-03
      0.445000          0.123674E-03
      0.450000          0.121640E-03
      0.455000          0.119884E-03
      0.460000          0.118339E-03
      0.465000          0.116948E-03
      0.470000          0.115667E-03
      0.475000          0.114464E-03
      0.480000          0.113321E-03
      0.485000          0.112226E-03
      0.490000          0.111178E-03
      0.495000          0.110178E-03
      0.500000          0.109229E-03
