 I_abs(s)[cm^-1]/c[mg/ml]
       0.00000          0.132615E-01
      0.500000E-02      0.131285E-01
      0.100000E-01      0.127375E-01
      0.150000E-01      0.121127E-01
      0.200000E-01      0.112915E-01
      0.250000E-01      0.103214E-01
      0.300000E-01      0.925561E-02
      0.350000E-01      0.814863E-02
      0.400000E-01      0.705175E-02
      0.450000E-01      0.600933E-02
      0.500000E-01      0.505610E-02
      0.550000E-01      0.421558E-02
      0.600000E-01      0.349986E-02
      0.650000E-01      0.291040E-02
      0.700000E-01      0.243989E-02
      0.750000E-01      0.207456E-02
      0.800000E-01      0.179687E-02
      0.850000E-01      0.158798E-02
      0.900000E-01      0.142995E-02
      0.950000E-01      0.130726E-02
      0.100000          0.120777E-02
      0.105000          0.112301E-02
      0.110000          0.104786E-02
      0.115000          0.979962E-03
      0.120000          0.918840E-03
      0.125000          0.865021E-03
      0.130000          0.819268E-03
      0.135000          0.782027E-03
      0.140000          0.753118E-03
      0.145000          0.731671E-03
      0.150000          0.716252E-03
      0.155000          0.705107E-03
      0.160000          0.696449E-03
      0.165000          0.688713E-03
      0.170000          0.680738E-03
      0.175000          0.671838E-03
      0.180000          0.661789E-03
      0.185000          0.650726E-03
      0.190000          0.639005E-03
      0.195000          0.627046E-03
      0.200000          0.615216E-03
      0.205000          0.603742E-03
      0.210000          0.592682E-03
      0.215000          0.581945E-03
      0.220000          0.571342E-03
      0.225000          0.560650E-03
      0.230000          0.549679E-03
      0.235000          0.538309E-03
      0.240000          0.526514E-03
      0.245000          0.514348E-03
      0.250000          0.501919E-03
      0.255000          0.489352E-03
      0.260000          0.476743E-03
      0.265000          0.464142E-03
      0.270000          0.451534E-03
      0.275000          0.438851E-03
      0.280000          0.425993E-03
      0.285000          0.412859E-03
      0.290000          0.399378E-03
      0.295000          0.385532E-03
      0.300000          0.371375E-03
      0.305000          0.357021E-03
      0.310000          0.342640E-03
      0.315000          0.328426E-03
      0.320000          0.314574E-03
      0.325000          0.301254E-03
      0.330000          0.288592E-03
      0.335000          0.276665E-03
      0.340000          0.265501E-03
      0.345000          0.255093E-03
      0.350000          0.245411E-03
      0.355000          0.236424E-03
      0.360000          0.228109E-03
      0.365000          0.220458E-03
      0.370000          0.213479E-03
      0.375000          0.207188E-03
      0.380000          0.201596E-03
      0.385000          0.196698E-03
      0.390000          0.192459E-03
      0.395000          0.188816E-03
      0.400000          0.185670E-03
      0.405000          0.182905E-03
      0.410000          0.180393E-03
      0.415000          0.178012E-03
      0.420000          0.175665E-03
      0.425000          0.173284E-03
      0.430000          0.170842E-03
      0.435000          0.168343E-03
      0.440000          0.165821E-03
      0.445000          0.163321E-03
      0.450000          0.160886E-03
      0.455000          0.158543E-03
      0.460000          0.156294E-03
      0.465000          0.154108E-03
      0.470000          0.151928E-03
      0.475000          0.149679E-03
      0.480000          0.147277E-03
      0.485000          0.144650E-03
      0.490000          0.141742E-03
      0.495000          0.138533E-03
      0.500000          0.135035E-03
