 I_abs(s)[cm^-1]/c[mg/ml]
       0.00000          0.141796E-01
      0.500000E-02      0.141075E-01
      0.100000E-01      0.138935E-01
      0.150000E-01      0.135447E-01
      0.200000E-01      0.130723E-01
      0.250000E-01      0.124913E-01
      0.300000E-01      0.118197E-01
      0.350000E-01      0.110773E-01
      0.400000E-01      0.102851E-01
      0.450000E-01      0.946430E-02
      0.500000E-01      0.863502E-02
      0.550000E-01      0.781589E-02
      0.600000E-01      0.702322E-02
      0.650000E-01      0.627048E-02
      0.700000E-01      0.556808E-02
      0.750000E-01      0.492323E-02
      0.800000E-01      0.434002E-02
      0.850000E-01      0.381975E-02
      0.900000E-01      0.336120E-02
      0.950000E-01      0.296122E-02
      0.100000          0.261515E-02
      0.105000          0.231740E-02
      0.110000          0.206193E-02
      0.115000          0.184269E-02
      0.120000          0.165397E-02
      0.125000          0.149063E-02
      0.130000          0.134829E-02
      0.135000          0.122339E-02
      0.140000          0.111312E-02
      0.145000          0.101541E-02
      0.150000          0.928750E-03
      0.155000          0.852064E-03
      0.160000          0.784543E-03
      0.165000          0.725517E-03
      0.170000          0.674336E-03
      0.175000          0.630293E-03
      0.180000          0.592582E-03
      0.185000          0.560290E-03
      0.190000          0.532422E-03
      0.195000          0.507945E-03
      0.200000          0.485847E-03
      0.205000          0.465197E-03
      0.210000          0.445203E-03
      0.215000          0.425250E-03
      0.220000          0.404933E-03
      0.225000          0.384058E-03
      0.230000          0.362632E-03
      0.235000          0.340833E-03
      0.240000          0.318972E-03
      0.245000          0.297442E-03
      0.250000          0.276666E-03
      0.255000          0.257053E-03
      0.260000          0.238957E-03
      0.265000          0.222646E-03
      0.270000          0.208287E-03
      0.275000          0.195937E-03
      0.280000          0.185553E-03
      0.285000          0.177006E-03
      0.290000          0.170098E-03
      0.295000          0.164594E-03
      0.300000          0.160242E-03
      0.305000          0.156797E-03
      0.310000          0.154038E-03
      0.315000          0.151784E-03
      0.320000          0.149897E-03
      0.325000          0.148285E-03
      0.330000          0.146895E-03
      0.335000          0.145710E-03
      0.340000          0.144732E-03
      0.345000          0.143977E-03
      0.350000          0.143459E-03
      0.355000          0.143187E-03
      0.360000          0.143154E-03
      0.365000          0.143337E-03
      0.370000          0.143695E-03
      0.375000          0.144172E-03
      0.380000          0.144701E-03
      0.385000          0.145210E-03
      0.390000          0.145627E-03
      0.395000          0.145885E-03
      0.400000          0.145931E-03
      0.405000          0.145721E-03
      0.410000          0.145233E-03
      0.415000          0.144457E-03
      0.420000          0.143401E-03
      0.425000          0.142088E-03
      0.430000          0.140550E-03
      0.435000          0.138825E-03
      0.440000          0.136957E-03
      0.445000          0.134989E-03
      0.450000          0.132962E-03
      0.455000          0.130909E-03
      0.460000          0.128860E-03
      0.465000          0.126834E-03
      0.470000          0.124843E-03
      0.475000          0.122891E-03
      0.480000          0.120975E-03
      0.485000          0.119089E-03
      0.490000          0.117220E-03
      0.495000          0.115355E-03
      0.500000          0.113480E-03
