 I_abs(s)[cm^-1]/c[mg/ml]
       0.00000          0.143527E-01
      0.500000E-02      0.143050E-01
      0.100000E-01      0.141629E-01
      0.150000E-01      0.139294E-01
      0.200000E-01      0.136093E-01
      0.250000E-01      0.132091E-01
      0.300000E-01      0.127369E-01
      0.350000E-01      0.122017E-01
      0.400000E-01      0.116139E-01
      0.450000E-01      0.109842E-01
      0.500000E-01      0.103237E-01
      0.550000E-01      0.964345E-02
      0.600000E-01      0.895420E-02
      0.650000E-01      0.826608E-02
      0.700000E-01      0.758840E-02
      0.750000E-01      0.692944E-02
      0.800000E-01      0.629630E-02
      0.850000E-01      0.569479E-02
      0.900000E-01      0.512943E-02
      0.950000E-01      0.460344E-02
      0.100000          0.411876E-02
      0.105000          0.367618E-02
      0.110000          0.327545E-02
      0.115000          0.291541E-02
      0.120000          0.259418E-02
      0.125000          0.230930E-02
      0.130000          0.205790E-02
      0.135000          0.183689E-02
      0.140000          0.164304E-02
      0.145000          0.147318E-02
      0.150000          0.132424E-02
      0.155000          0.119338E-02
      0.160000          0.107801E-02
      0.165000          0.975860E-03
      0.170000          0.884963E-03
      0.175000          0.803673E-03
      0.180000          0.730636E-03
      0.185000          0.664769E-03
      0.190000          0.605219E-03
      0.195000          0.551323E-03
      0.200000          0.502569E-03
      0.205000          0.458557E-03
      0.210000          0.418959E-03
      0.215000          0.383493E-03
      0.220000          0.351899E-03
      0.225000          0.323918E-03
      0.230000          0.299284E-03
      0.235000          0.277715E-03
      0.240000          0.258918E-03
      0.245000          0.242587E-03
      0.250000          0.228410E-03
      0.255000          0.216081E-03
      0.260000          0.205303E-03
      0.265000          0.195800E-03
      0.270000          0.187322E-03
      0.275000          0.179651E-03
      0.280000          0.172607E-03
      0.285000          0.166046E-03
      0.290000          0.159861E-03
      0.295000          0.153981E-03
      0.300000          0.148366E-03
      0.305000          0.143005E-03
      0.310000          0.137905E-03
      0.315000          0.133091E-03
      0.320000          0.128597E-03
      0.325000          0.124461E-03
      0.330000          0.120720E-03
      0.335000          0.117406E-03
      0.340000          0.114543E-03
      0.345000          0.112143E-03
      0.350000          0.110208E-03
      0.355000          0.108727E-03
      0.360000          0.107675E-03
      0.365000          0.107017E-03
      0.370000          0.106708E-03
      0.375000          0.106696E-03
      0.380000          0.106923E-03
      0.385000          0.107325E-03
      0.390000          0.107841E-03
      0.395000          0.108409E-03
      0.400000          0.108968E-03
      0.405000          0.109466E-03
      0.410000          0.109853E-03
      0.415000          0.110088E-03
      0.420000          0.110139E-03
      0.425000          0.109979E-03
      0.430000          0.109593E-03
      0.435000          0.108972E-03
      0.440000          0.108115E-03
      0.445000          0.107031E-03
      0.450000          0.105732E-03
      0.455000          0.104237E-03
      0.460000          0.102571E-03
      0.465000          0.100760E-03
      0.470000          0.988345E-04
      0.475000          0.968263E-04
      0.480000          0.947671E-04
      0.485000          0.926885E-04
      0.490000          0.906209E-04
      0.495000          0.885926E-04
      0.500000          0.866291E-04
