 I_abs(s)[cm^-1]/c[mg/ml]
       0.00000          0.147580E-01
      0.500000E-02      0.146973E-01
      0.100000E-01      0.145166E-01
      0.150000E-01      0.142203E-01
      0.200000E-01      0.138156E-01
      0.250000E-01      0.133120E-01
      0.300000E-01      0.127213E-01
      0.350000E-01      0.120568E-01
      0.400000E-01      0.113330E-01
      0.450000E-01      0.105653E-01
      0.500000E-01      0.976910E-02
      0.550000E-01      0.895940E-02
      0.600000E-01      0.815056E-02
      0.650000E-01      0.735574E-02
      0.700000E-01      0.658660E-02
      0.750000E-01      0.585306E-02
      0.800000E-01      0.516321E-02
      0.850000E-01      0.452313E-02
      0.900000E-01      0.393701E-02
      0.950000E-01      0.340717E-02
      0.100000          0.293425E-02
      0.105000          0.251738E-02
      0.110000          0.215442E-02
      0.115000          0.184221E-02
      0.120000          0.157682E-02
      0.125000          0.135381E-02
      0.130000          0.116847E-02
      0.135000          0.101599E-02
      0.140000          0.891695E-03
      0.145000          0.791117E-03
      0.150000          0.710158E-03
      0.155000          0.645133E-03
      0.160000          0.592819E-03
      0.165000          0.550469E-03
      0.170000          0.515798E-03
      0.175000          0.486961E-03
      0.180000          0.462506E-03
      0.185000          0.441331E-03
      0.190000          0.422628E-03
      0.195000          0.405831E-03
      0.200000          0.390563E-03
      0.205000          0.376591E-03
      0.210000          0.363782E-03
      0.215000          0.352070E-03
      0.220000          0.341423E-03
      0.225000          0.331825E-03
      0.230000          0.323253E-03
      0.235000          0.315672E-03
      0.240000          0.309020E-03
      0.245000          0.303214E-03
      0.250000          0.298142E-03
      0.255000          0.293674E-03
      0.260000          0.289661E-03
      0.265000          0.285945E-03
      0.270000          0.282366E-03
      0.275000          0.278770E-03
      0.280000          0.275016E-03
      0.285000          0.270982E-03
      0.290000          0.266575E-03
      0.295000          0.261728E-03
      0.300000          0.256411E-03
      0.305000          0.250623E-03
      0.310000          0.244396E-03
      0.315000          0.237791E-03
      0.320000          0.230890E-03
      0.325000          0.223797E-03
      0.330000          0.216622E-03
      0.335000          0.209482E-03
      0.340000          0.202492E-03
      0.345000          0.195756E-03
      0.350000          0.189363E-03
      0.355000          0.183388E-03
      0.360000          0.177880E-03
      0.365000          0.172870E-03
      0.370000          0.168364E-03
      0.375000          0.164350E-03
      0.380000          0.160797E-03
      0.385000          0.157660E-03
      0.390000          0.154885E-03
      0.395000          0.152407E-03
      0.400000          0.150164E-03
      0.405000          0.148089E-03
      0.410000          0.146122E-03
      0.415000          0.144208E-03
      0.420000          0.142296E-03
      0.425000          0.140348E-03
      0.430000          0.138330E-03
      0.435000          0.136220E-03
      0.440000          0.134003E-03
      0.445000          0.131669E-03
      0.450000          0.129219E-03
      0.455000          0.126657E-03
      0.460000          0.123995E-03
      0.465000          0.121247E-03
      0.470000          0.118433E-03
      0.475000          0.115578E-03
      0.480000          0.112706E-03
      0.485000          0.109846E-03
      0.490000          0.107028E-03
      0.495000          0.104280E-03
      0.500000          0.101631E-03
