 I_abs(s)[cm^-1]/c[mg/ml]
       0.00000          0.145904E-01
      0.500000E-02      0.145385E-01
      0.100000E-01      0.143840E-01
      0.150000E-01      0.141305E-01
      0.200000E-01      0.137836E-01
      0.250000E-01      0.133510E-01
      0.300000E-01      0.128422E-01
      0.350000E-01      0.122679E-01
      0.400000E-01      0.116400E-01
      0.450000E-01      0.109707E-01
      0.500000E-01      0.102726E-01
      0.550000E-01      0.955795E-02
      0.600000E-01      0.883850E-02
      0.650000E-01      0.812511E-02
      0.700000E-01      0.742746E-02
      0.750000E-01      0.675392E-02
      0.800000E-01      0.611138E-02
      0.850000E-01      0.550523E-02
      0.900000E-01      0.493934E-02
      0.950000E-01      0.441612E-02
      0.100000          0.393667E-02
      0.105000          0.350090E-02
      0.110000          0.310773E-02
      0.115000          0.275527E-02
      0.120000          0.244106E-02
      0.125000          0.216221E-02
      0.130000          0.191559E-02
      0.135000          0.169802E-02
      0.140000          0.150638E-02
      0.145000          0.133769E-02
      0.150000          0.118921E-02
      0.155000          0.105848E-02
      0.160000          0.943318E-03
      0.165000          0.841841E-03
      0.170000          0.752435E-03
      0.175000          0.673726E-03
      0.180000          0.604548E-03
      0.185000          0.543902E-03
      0.190000          0.490917E-03
      0.195000          0.444820E-03
      0.200000          0.404909E-03
      0.205000          0.370527E-03
      0.210000          0.341056E-03
      0.215000          0.315907E-03
      0.220000          0.294515E-03
      0.225000          0.276347E-03
      0.230000          0.260905E-03
      0.235000          0.247731E-03
      0.240000          0.236413E-03
      0.245000          0.226592E-03
      0.250000          0.217961E-03
      0.255000          0.210269E-03
      0.260000          0.203319E-03
      0.265000          0.196959E-03
      0.270000          0.191084E-03
      0.275000          0.185621E-03
      0.280000          0.180526E-03
      0.285000          0.175778E-03
      0.290000          0.171367E-03
      0.295000          0.167291E-03
      0.300000          0.163552E-03
      0.305000          0.160148E-03
      0.310000          0.157076E-03
      0.315000          0.154327E-03
      0.320000          0.151888E-03
      0.325000          0.149741E-03
      0.330000          0.147862E-03
      0.335000          0.146227E-03
      0.340000          0.144809E-03
      0.345000          0.143578E-03
      0.350000          0.142507E-03
      0.355000          0.141565E-03
      0.360000          0.140724E-03
      0.365000          0.139955E-03
      0.370000          0.139229E-03
      0.375000          0.138518E-03
      0.380000          0.137794E-03
      0.385000          0.137031E-03
      0.390000          0.136203E-03
      0.395000          0.135288E-03
      0.400000          0.134268E-03
      0.405000          0.133125E-03
      0.410000          0.131850E-03
      0.415000          0.130436E-03
      0.420000          0.128884E-03
      0.425000          0.127197E-03
      0.430000          0.125385E-03
      0.435000          0.123461E-03
      0.440000          0.121442E-03
      0.445000          0.119347E-03
      0.450000          0.117193E-03
      0.455000          0.114998E-03
      0.460000          0.112780E-03
      0.465000          0.110550E-03
      0.470000          0.108320E-03
      0.475000          0.106095E-03
      0.480000          0.103880E-03
      0.485000          0.101674E-03
      0.490000          0.994777E-04
      0.495000          0.972880E-04
      0.500000          0.951043E-04
