 I_abs(s)[cm^-1]/c[mg/ml]
       0.00000          0.141875E-01
      0.500000E-02      0.141401E-01
      0.100000E-01      0.139991E-01
      0.150000E-01      0.137671E-01
      0.200000E-01      0.134487E-01
      0.250000E-01      0.130500E-01
      0.300000E-01      0.125786E-01
      0.350000E-01      0.120432E-01
      0.400000E-01      0.114536E-01
      0.450000E-01      0.108203E-01
      0.500000E-01      0.101540E-01
      0.550000E-01      0.946577E-02
      0.600000E-01      0.876639E-02
      0.650000E-01      0.806622E-02
      0.700000E-01      0.737497E-02
      0.750000E-01      0.670145E-02
      0.800000E-01      0.605343E-02
      0.850000E-01      0.543749E-02
      0.900000E-01      0.485896E-02
      0.950000E-01      0.432187E-02
      0.100000          0.382892E-02
      0.105000          0.338159E-02
      0.110000          0.298015E-02
      0.115000          0.262381E-02
      0.120000          0.231087E-02
      0.125000          0.203883E-02
      0.130000          0.180458E-02
      0.135000          0.160457E-02
      0.140000          0.143495E-02
      0.145000          0.129178E-02
      0.150000          0.117111E-02
      0.155000          0.106916E-02
      0.160000          0.982399E-03
      0.165000          0.907621E-03
      0.170000          0.842025E-03
      0.175000          0.783239E-03
      0.180000          0.729334E-03
      0.185000          0.678824E-03
      0.190000          0.630637E-03
      0.195000          0.584078E-03
      0.200000          0.538783E-03
      0.205000          0.494663E-03
      0.210000          0.451840E-03
      0.215000          0.410593E-03
      0.220000          0.371293E-03
      0.225000          0.334357E-03
      0.230000          0.300195E-03
      0.235000          0.269174E-03
      0.240000          0.241587E-03
      0.245000          0.217632E-03
      0.250000          0.197401E-03
      0.255000          0.180874E-03
      0.260000          0.167925E-03
      0.265000          0.158328E-03
      0.270000          0.151776E-03
      0.275000          0.147896E-03
      0.280000          0.146268E-03
      0.285000          0.146448E-03
      0.290000          0.147987E-03
      0.295000          0.150450E-03
      0.300000          0.153430E-03
      0.305000          0.156563E-03
      0.310000          0.159537E-03
      0.315000          0.162100E-03
      0.320000          0.164060E-03
      0.325000          0.165287E-03
      0.330000          0.165710E-03
      0.335000          0.165311E-03
      0.340000          0.164119E-03
      0.345000          0.162200E-03
      0.350000          0.159650E-03
      0.355000          0.156585E-03
      0.360000          0.153133E-03
      0.365000          0.149423E-03
      0.370000          0.145584E-03
      0.375000          0.141731E-03
      0.380000          0.137967E-03
      0.385000          0.134378E-03
      0.390000          0.131027E-03
      0.395000          0.127960E-03
      0.400000          0.125203E-03
      0.405000          0.122761E-03
      0.410000          0.120626E-03
      0.415000          0.118774E-03
      0.420000          0.117172E-03
      0.425000          0.115778E-03
      0.430000          0.114547E-03
      0.435000          0.113431E-03
      0.440000          0.112385E-03
      0.445000          0.111365E-03
      0.450000          0.110333E-03
      0.455000          0.109258E-03
      0.460000          0.108116E-03
      0.465000          0.106890E-03
      0.470000          0.105569E-03
      0.475000          0.104153E-03
      0.480000          0.102644E-03
      0.485000          0.101052E-03
      0.490000          0.993923E-04
      0.495000          0.976806E-04
      0.500000          0.959368E-04
