 I_abs(s)[cm^-1]/c[mg/ml]
       0.00000          0.142975E-01
      0.500000E-02      0.142503E-01
      0.100000E-01      0.141097E-01
      0.150000E-01      0.138781E-01
      0.200000E-01      0.135601E-01
      0.250000E-01      0.131614E-01
      0.300000E-01      0.126893E-01
      0.350000E-01      0.121522E-01
      0.400000E-01      0.115596E-01
      0.450000E-01      0.109215E-01
      0.500000E-01      0.102484E-01
      0.550000E-01      0.955121E-02
      0.600000E-01      0.884039E-02
      0.650000E-01      0.812627E-02
      0.700000E-01      0.741853E-02
      0.750000E-01      0.672609E-02
      0.800000E-01      0.605692E-02
      0.850000E-01      0.541792E-02
      0.900000E-01      0.481482E-02
      0.950000E-01      0.425211E-02
      0.100000          0.373305E-02
      0.105000          0.325970E-02
      0.110000          0.283295E-02
      0.115000          0.245263E-02
      0.120000          0.211763E-02
      0.125000          0.182599E-02
      0.130000          0.157512E-02
      0.135000          0.136186E-02
      0.140000          0.118270E-02
      0.145000          0.103391E-02
      0.150000          0.911654E-03
      0.155000          0.812142E-03
      0.160000          0.731728E-03
      0.165000          0.666996E-03
      0.170000          0.614833E-03
      0.175000          0.572478E-03
      0.180000          0.537546E-03
      0.185000          0.508045E-03
      0.190000          0.482366E-03
      0.195000          0.459266E-03
      0.200000          0.437834E-03
      0.205000          0.417455E-03
      0.210000          0.397764E-03
      0.215000          0.378594E-03
      0.220000          0.359936E-03
      0.225000          0.341884E-03
      0.230000          0.324600E-03
      0.235000          0.308274E-03
      0.240000          0.293091E-03
      0.245000          0.279212E-03
      0.250000          0.266752E-03
      0.255000          0.255773E-03
      0.260000          0.246277E-03
      0.265000          0.238208E-03
      0.270000          0.231459E-03
      0.275000          0.225877E-03
      0.280000          0.221276E-03
      0.285000          0.217448E-03
      0.290000          0.214180E-03
      0.295000          0.211259E-03
      0.300000          0.208487E-03
      0.305000          0.205690E-03
      0.310000          0.202721E-03
      0.315000          0.199471E-03
      0.320000          0.195865E-03
      0.325000          0.191866E-03
      0.330000          0.187471E-03
      0.335000          0.182710E-03
      0.340000          0.177636E-03
      0.345000          0.172326E-03
      0.350000          0.166870E-03
      0.355000          0.161365E-03
      0.360000          0.155912E-03
      0.365000          0.150605E-03
      0.370000          0.145533E-03
      0.375000          0.140769E-03
      0.380000          0.136372E-03
      0.385000          0.132384E-03
      0.390000          0.128827E-03
      0.395000          0.125707E-03
      0.400000          0.123012E-03
      0.405000          0.120713E-03
      0.410000          0.118770E-03
      0.415000          0.117132E-03
      0.420000          0.115742E-03
      0.425000          0.114536E-03
      0.430000          0.113451E-03
      0.435000          0.112424E-03
      0.440000          0.111397E-03
      0.445000          0.110319E-03
      0.450000          0.109145E-03
      0.455000          0.107840E-03
      0.460000          0.106378E-03
      0.465000          0.104746E-03
      0.470000          0.102937E-03
      0.475000          0.100957E-03
      0.480000          0.988180E-04
      0.485000          0.965424E-04
      0.490000          0.941571E-04
      0.495000          0.916944E-04
      0.500000          0.891901E-04
