 I_abs(s)[cm^-1]/c[mg/ml]
       0.00000          0.147100E-01
      0.500000E-02      0.146574E-01
      0.100000E-01      0.145005E-01
      0.150000E-01      0.142423E-01
      0.200000E-01      0.138880E-01
      0.250000E-01      0.134442E-01
      0.300000E-01      0.129194E-01
      0.350000E-01      0.123234E-01
      0.400000E-01      0.116669E-01
      0.450000E-01      0.109617E-01
      0.500000E-01      0.102199E-01
      0.550000E-01      0.945369E-02
      0.600000E-01      0.867531E-02
      0.650000E-01      0.789645E-02
      0.700000E-01      0.712811E-02
      0.750000E-01      0.638037E-02
      0.800000E-01      0.566215E-02
      0.850000E-01      0.498111E-02
      0.900000E-01      0.434353E-02
      0.950000E-01      0.375424E-02
      0.100000          0.321662E-02
      0.105000          0.273265E-02
      0.110000          0.230296E-02
      0.115000          0.192696E-02
      0.120000          0.160296E-02
      0.125000          0.132836E-02
      0.130000          0.109978E-02
      0.135000          0.913270E-03
      0.140000          0.764464E-03
      0.145000          0.648779E-03
      0.150000          0.561560E-03
      0.155000          0.498226E-03
      0.160000          0.454394E-03
      0.165000          0.425982E-03
      0.170000          0.409287E-03
      0.175000          0.401037E-03
      0.180000          0.398426E-03
      0.185000          0.399124E-03
      0.190000          0.401267E-03
      0.195000          0.403434E-03
      0.200000          0.404610E-03
      0.205000          0.404140E-03
      0.210000          0.401675E-03
      0.215000          0.397117E-03
      0.220000          0.390563E-03
      0.225000          0.382251E-03
      0.230000          0.372509E-03
      0.235000          0.361715E-03
      0.240000          0.350254E-03
      0.245000          0.338496E-03
      0.250000          0.326765E-03
      0.255000          0.315334E-03
      0.260000          0.304407E-03
      0.265000          0.294124E-03
      0.270000          0.284561E-03
      0.275000          0.275735E-03
      0.280000          0.267614E-03
      0.285000          0.260131E-03
      0.290000          0.253189E-03
      0.295000          0.246677E-03
      0.300000          0.240482E-03
      0.305000          0.234491E-03
      0.310000          0.228608E-03
      0.315000          0.222750E-03
      0.320000          0.216859E-03
      0.325000          0.210897E-03
      0.330000          0.204850E-03
      0.335000          0.198725E-03
      0.340000          0.192548E-03
      0.345000          0.186361E-03
      0.350000          0.180214E-03
      0.355000          0.174168E-03
      0.360000          0.168282E-03
      0.365000          0.162619E-03
      0.370000          0.157232E-03
      0.375000          0.152171E-03
      0.380000          0.147473E-03
      0.385000          0.143165E-03
      0.390000          0.139262E-03
      0.395000          0.135768E-03
      0.400000          0.132673E-03
      0.405000          0.129960E-03
      0.410000          0.127599E-03
      0.415000          0.125556E-03
      0.420000          0.123789E-03
      0.425000          0.122253E-03
      0.430000          0.120902E-03
      0.435000          0.119689E-03
      0.440000          0.118570E-03
      0.445000          0.117501E-03
      0.450000          0.116445E-03
      0.455000          0.115370E-03
      0.460000          0.114249E-03
      0.465000          0.113061E-03
      0.470000          0.111791E-03
      0.475000          0.110431E-03
      0.480000          0.108979E-03
      0.485000          0.107438E-03
      0.490000          0.105815E-03
      0.495000          0.104121E-03
      0.500000          0.102373E-03
