 I_abs(s)[cm^-1]/c[mg/ml]
       0.00000          0.138831E-01
      0.500000E-02      0.138044E-01
      0.100000E-01      0.135709E-01
      0.150000E-01      0.131906E-01
      0.200000E-01      0.126765E-01
      0.250000E-01      0.120456E-01
      0.300000E-01      0.113181E-01
      0.350000E-01      0.105165E-01
      0.400000E-01      0.966437E-02
      0.450000E-01      0.878507E-02
      0.500000E-01      0.790105E-02
      0.550000E-01      0.703273E-02
      0.600000E-01      0.619784E-02
      0.650000E-01      0.541098E-02
      0.700000E-01      0.468329E-02
      0.750000E-01      0.402245E-02
      0.800000E-01      0.343281E-02
      0.850000E-01      0.291568E-02
      0.900000E-01      0.246976E-02
      0.950000E-01      0.209168E-02
      0.100000          0.177644E-02
      0.105000          0.151797E-02
      0.110000          0.130962E-02
      0.115000          0.114451E-02
      0.120000          0.101589E-02
      0.125000          0.917398E-03
      0.130000          0.843192E-03
      0.135000          0.788085E-03
      0.140000          0.747572E-03
      0.145000          0.717838E-03
      0.150000          0.695726E-03
      0.155000          0.678692E-03
      0.160000          0.664747E-03
      0.165000          0.652398E-03
      0.170000          0.640581E-03
      0.175000          0.628606E-03
      0.180000          0.616090E-03
      0.185000          0.602905E-03
      0.190000          0.589111E-03
      0.195000          0.574904E-03
      0.200000          0.560554E-03
      0.205000          0.546357E-03
      0.210000          0.532586E-03
      0.215000          0.519455E-03
      0.220000          0.507089E-03
      0.225000          0.495512E-03
      0.230000          0.484647E-03
      0.235000          0.474320E-03
      0.240000          0.464285E-03
      0.245000          0.454250E-03
      0.250000          0.443910E-03
      0.255000          0.432979E-03
      0.260000          0.421221E-03
      0.265000          0.408475E-03
      0.270000          0.394667E-03
      0.275000          0.379825E-03
      0.280000          0.364069E-03
      0.285000          0.347606E-03
      0.290000          0.330709E-03
      0.295000          0.313695E-03
      0.300000          0.296901E-03
      0.305000          0.280652E-03
      0.310000          0.265247E-03
      0.315000          0.250931E-03
      0.320000          0.237884E-03
      0.325000          0.226213E-03
      0.330000          0.215950E-03
      0.335000          0.207055E-03
      0.340000          0.199425E-03
      0.345000          0.192909E-03
      0.350000          0.187320E-03
      0.355000          0.182454E-03
      0.360000          0.178102E-03
      0.365000          0.174071E-03
      0.370000          0.170189E-03
      0.375000          0.166320E-03
      0.380000          0.162362E-03
      0.385000          0.158257E-03
      0.390000          0.153985E-03
      0.395000          0.149561E-03
      0.400000          0.145026E-03
      0.405000          0.140448E-03
      0.410000          0.135902E-03
      0.415000          0.131471E-03
      0.420000          0.127236E-03
      0.425000          0.123266E-03
      0.430000          0.119618E-03
      0.435000          0.116334E-03
      0.440000          0.113435E-03
      0.445000          0.110926E-03
      0.450000          0.108796E-03
      0.455000          0.107019E-03
      0.460000          0.105561E-03
      0.465000          0.104381E-03
      0.470000          0.103433E-03
      0.475000          0.102673E-03
      0.480000          0.102057E-03
      0.485000          0.101547E-03
      0.490000          0.101106E-03
      0.495000          0.100704E-03
      0.500000          0.100315E-03
