 I_abs(s)[cm^-1]/c[mg/ml]
       0.00000          0.144022E-01
      0.500000E-02      0.143337E-01
      0.100000E-01      0.141302E-01
      0.150000E-01      0.137978E-01
      0.200000E-01      0.133460E-01
      0.250000E-01      0.127877E-01
      0.300000E-01      0.121385E-01
      0.350000E-01      0.114159E-01
      0.400000E-01      0.106386E-01
      0.450000E-01      0.982596E-02
      0.500000E-01      0.899678E-02
      0.550000E-01      0.816899E-02
      0.600000E-01      0.735886E-02
      0.650000E-01      0.658058E-02
      0.700000E-01      0.584581E-02
      0.750000E-01      0.516356E-02
      0.800000E-01      0.454006E-02
      0.850000E-01      0.397885E-02
      0.900000E-01      0.348098E-02
      0.950000E-01      0.304526E-02
      0.100000          0.266869E-02
      0.105000          0.234681E-02
      0.110000          0.207416E-02
      0.115000          0.184469E-02
      0.120000          0.165215E-02
      0.125000          0.149043E-02
      0.130000          0.135379E-02
      0.135000          0.123712E-02
      0.140000          0.113605E-02
      0.145000          0.104696E-02
      0.150000          0.967060E-03
      0.155000          0.894266E-03
      0.160000          0.827147E-03
      0.165000          0.764803E-03
      0.170000          0.706737E-03
      0.175000          0.652733E-03
      0.180000          0.602740E-03
      0.185000          0.556778E-03
      0.190000          0.514866E-03
      0.195000          0.476964E-03
      0.200000          0.442954E-03
      0.205000          0.412625E-03
      0.210000          0.385689E-03
      0.215000          0.361798E-03
      0.220000          0.340572E-03
      0.225000          0.321629E-03
      0.230000          0.304611E-03
      0.235000          0.289207E-03
      0.240000          0.275165E-03
      0.245000          0.262302E-03
      0.250000          0.250502E-03
      0.255000          0.239703E-03
      0.260000          0.229890E-03
      0.265000          0.221078E-03
      0.270000          0.213289E-03
      0.275000          0.206543E-03
      0.280000          0.200841E-03
      0.285000          0.196157E-03
      0.290000          0.192430E-03
      0.295000          0.189567E-03
      0.300000          0.187443E-03
      0.305000          0.185912E-03
      0.310000          0.184811E-03
      0.315000          0.183978E-03
      0.320000          0.183252E-03
      0.325000          0.182493E-03
      0.330000          0.181583E-03
      0.335000          0.180435E-03
      0.340000          0.178994E-03
      0.345000          0.177237E-03
      0.350000          0.175172E-03
      0.355000          0.172831E-03
      0.360000          0.170269E-03
      0.365000          0.167551E-03
      0.370000          0.164752E-03
      0.375000          0.161943E-03
      0.380000          0.159192E-03
      0.385000          0.156555E-03
      0.390000          0.154076E-03
      0.395000          0.151782E-03
      0.400000          0.149686E-03
      0.405000          0.147784E-03
      0.410000          0.146063E-03
      0.415000          0.144496E-03
      0.420000          0.143051E-03
      0.425000          0.141691E-03
      0.430000          0.140378E-03
      0.435000          0.139076E-03
      0.440000          0.137752E-03
      0.445000          0.136379E-03
      0.450000          0.134937E-03
      0.455000          0.133409E-03
      0.460000          0.131788E-03
      0.465000          0.130073E-03
      0.470000          0.128265E-03
      0.475000          0.126373E-03
      0.480000          0.124406E-03
      0.485000          0.122375E-03
      0.490000          0.120296E-03
      0.495000          0.118180E-03
      0.500000          0.116041E-03
