 I_abs(s)[cm^-1]/c[mg/ml]
       0.00000          0.143628E-01
      0.500000E-02      0.143014E-01
      0.100000E-01      0.141187E-01
      0.150000E-01      0.138189E-01
      0.200000E-01      0.134092E-01
      0.250000E-01      0.128989E-01
      0.300000E-01      0.122996E-01
      0.350000E-01      0.116247E-01
      0.400000E-01      0.108888E-01
      0.450000E-01      0.101073E-01
      0.500000E-01      0.929603E-02
      0.550000E-01      0.847050E-02
      0.600000E-01      0.764574E-02
      0.650000E-01      0.683573E-02
      0.700000E-01      0.605307E-02
      0.750000E-01      0.530871E-02
      0.800000E-01      0.461176E-02
      0.850000E-01      0.396932E-02
      0.900000E-01      0.338647E-02
      0.950000E-01      0.286628E-02
      0.100000          0.240992E-02
      0.105000          0.201680E-02
      0.110000          0.168478E-02
      0.115000          0.141041E-02
      0.120000          0.118920E-02
      0.125000          0.101587E-02
      0.130000          0.884618E-03
      0.135000          0.789406E-03
      0.140000          0.724149E-03
      0.145000          0.682947E-03
      0.150000          0.660240E-03
      0.155000          0.650948E-03
      0.160000          0.650564E-03
      0.165000          0.655213E-03
      0.170000          0.661682E-03
      0.175000          0.667414E-03
      0.180000          0.670486E-03
      0.185000          0.669555E-03
      0.190000          0.663804E-03
      0.195000          0.652867E-03
      0.200000          0.636755E-03
      0.205000          0.615782E-03
      0.210000          0.590487E-03
      0.215000          0.561569E-03
      0.220000          0.529824E-03
      0.225000          0.496092E-03
      0.230000          0.461215E-03
      0.235000          0.425997E-03
      0.240000          0.391177E-03
      0.245000          0.357415E-03
      0.250000          0.325272E-03
      0.255000          0.295205E-03
      0.260000          0.267570E-03
      0.265000          0.242615E-03
      0.270000          0.220494E-03
      0.275000          0.201268E-03
      0.280000          0.184920E-03
      0.285000          0.171360E-03
      0.290000          0.160441E-03
      0.295000          0.151965E-03
      0.300000          0.145703E-03
      0.305000          0.141398E-03
      0.310000          0.138779E-03
      0.315000          0.137572E-03
      0.320000          0.137508E-03
      0.325000          0.138328E-03
      0.330000          0.139793E-03
      0.335000          0.141688E-03
      0.340000          0.143822E-03
      0.345000          0.146036E-03
      0.350000          0.148197E-03
      0.355000          0.150203E-03
      0.360000          0.151978E-03
      0.365000          0.153471E-03
      0.370000          0.154652E-03
      0.375000          0.155508E-03
      0.380000          0.156042E-03
      0.385000          0.156266E-03
      0.390000          0.156198E-03
      0.395000          0.155861E-03
      0.400000          0.155277E-03
      0.405000          0.154469E-03
      0.410000          0.153457E-03
      0.415000          0.152255E-03
      0.420000          0.150876E-03
      0.425000          0.149327E-03
      0.430000          0.147613E-03
      0.435000          0.145736E-03
      0.440000          0.143695E-03
      0.445000          0.141491E-03
      0.450000          0.139124E-03
      0.455000          0.136596E-03
      0.460000          0.133911E-03
      0.465000          0.131076E-03
      0.470000          0.128103E-03
      0.475000          0.125008E-03
      0.480000          0.121808E-03
      0.485000          0.118528E-03
      0.490000          0.115193E-03
      0.495000          0.111834E-03
      0.500000          0.108483E-03
