 I_abs(s)[cm^-1]/c[mg/ml]
       0.00000          0.140415E-01
      0.500000E-02      0.139344E-01
      0.100000E-01      0.136192E-01
      0.150000E-01      0.131132E-01
      0.200000E-01      0.124431E-01
      0.250000E-01      0.116435E-01
      0.300000E-01      0.107529E-01
      0.350000E-01      0.981130E-02
      0.400000E-01      0.885670E-02
      0.450000E-01      0.792268E-02
      0.500000E-01      0.703644E-02
      0.550000E-01      0.621764E-02
      0.600000E-01      0.547825E-02
      0.650000E-01      0.482300E-02
      0.700000E-01      0.425055E-02
      0.750000E-01      0.375507E-02
      0.800000E-01      0.332790E-02
      0.850000E-01      0.295918E-02
      0.900000E-01      0.263920E-02
      0.950000E-01      0.235941E-02
      0.100000          0.211291E-02
      0.105000          0.189463E-02
      0.110000          0.170106E-02
      0.115000          0.152992E-02
      0.120000          0.137958E-02
      0.125000          0.124862E-02
      0.130000          0.113546E-02
      0.135000          0.103817E-02
      0.140000          0.954450E-03
      0.145000          0.881758E-03
      0.150000          0.817564E-03
      0.155000          0.759603E-03
      0.160000          0.706106E-03
      0.165000          0.655952E-03
      0.170000          0.608706E-03
      0.175000          0.564543E-03
      0.180000          0.524080E-03
      0.185000          0.488141E-03
      0.190000          0.457521E-03
      0.195000          0.432761E-03
      0.200000          0.414002E-03
      0.205000          0.400909E-03
      0.210000          0.392693E-03
      0.215000          0.388201E-03
      0.220000          0.386065E-03
      0.225000          0.384870E-03
      0.230000          0.383318E-03
      0.235000          0.380362E-03
      0.240000          0.375294E-03
      0.245000          0.367770E-03
      0.250000          0.357793E-03
      0.255000          0.345650E-03
      0.260000          0.331829E-03
      0.265000          0.316922E-03
      0.270000          0.301537E-03
      0.275000          0.286235E-03
      0.280000          0.271480E-03
      0.285000          0.257618E-03
      0.290000          0.244879E-03
      0.295000          0.233387E-03
      0.300000          0.223185E-03
      0.305000          0.214251E-03
      0.310000          0.206519E-03
      0.315000          0.199893E-03
      0.320000          0.194253E-03
      0.325000          0.189463E-03
      0.330000          0.185373E-03
      0.335000          0.181824E-03
      0.340000          0.178660E-03
      0.345000          0.175734E-03
      0.350000          0.172919E-03
      0.355000          0.170119E-03
      0.360000          0.167277E-03
      0.365000          0.164375E-03
      0.370000          0.161429E-03
      0.375000          0.158484E-03
      0.380000          0.155595E-03
      0.385000          0.152821E-03
      0.390000          0.150205E-03
      0.395000          0.147766E-03
      0.400000          0.145498E-03
      0.405000          0.143367E-03
      0.410000          0.141321E-03
      0.415000          0.139298E-03
      0.420000          0.137237E-03
      0.425000          0.135090E-03
      0.430000          0.132830E-03
      0.435000          0.130456E-03
      0.440000          0.127987E-03
      0.445000          0.125464E-03
      0.450000          0.122934E-03
      0.455000          0.120449E-03
      0.460000          0.118048E-03
      0.465000          0.115761E-03
      0.470000          0.113595E-03
      0.475000          0.111544E-03
      0.480000          0.109587E-03
      0.485000          0.107696E-03
      0.490000          0.105840E-03
      0.495000          0.103997E-03
      0.500000          0.102151E-03
