 I_abs(s)[cm^-1]/c[mg/ml]
       0.00000          0.148716E-01
      0.500000E-02      0.147981E-01
      0.100000E-01      0.145796E-01
      0.150000E-01      0.142224E-01
      0.200000E-01      0.137364E-01
      0.250000E-01      0.131349E-01
      0.300000E-01      0.124342E-01
      0.350000E-01      0.116526E-01
      0.400000E-01      0.108098E-01
      0.450000E-01      0.992619E-02
      0.500000E-01      0.902205E-02
      0.550000E-01      0.811675E-02
      0.600000E-01      0.722815E-02
      0.650000E-01      0.637211E-02
      0.700000E-01      0.556203E-02
      0.750000E-01      0.480857E-02
      0.800000E-01      0.411958E-02
      0.850000E-01      0.350005E-02
      0.900000E-01      0.295226E-02
      0.950000E-01      0.247604E-02
      0.100000          0.206906E-02
      0.105000          0.172724E-02
      0.110000          0.144516E-02
      0.115000          0.121646E-02
      0.120000          0.103430E-02
      0.125000          0.891660E-03
      0.130000          0.781719E-03
      0.135000          0.698080E-03
      0.140000          0.634970E-03
      0.145000          0.587364E-03
      0.150000          0.551046E-03
      0.155000          0.522615E-03
      0.160000          0.499443E-03
      0.165000          0.479601E-03
      0.170000          0.461759E-03
      0.175000          0.445076E-03
      0.180000          0.429090E-03
      0.185000          0.413604E-03
      0.190000          0.398599E-03
      0.195000          0.384152E-03
      0.200000          0.370377E-03
      0.205000          0.357381E-03
      0.210000          0.345243E-03
      0.215000          0.333999E-03
      0.220000          0.323644E-03
      0.225000          0.314137E-03
      0.230000          0.305415E-03
      0.235000          0.297402E-03
      0.240000          0.290026E-03
      0.245000          0.283220E-03
      0.250000          0.276934E-03
      0.255000          0.271134E-03
      0.260000          0.265801E-03
      0.265000          0.260925E-03
      0.270000          0.256504E-03
      0.275000          0.252536E-03
      0.280000          0.249011E-03
      0.285000          0.245911E-03
      0.290000          0.243208E-03
      0.295000          0.240859E-03
      0.300000          0.238809E-03
      0.305000          0.236998E-03
      0.310000          0.235359E-03
      0.315000          0.233824E-03
      0.320000          0.232330E-03
      0.325000          0.230820E-03
      0.330000          0.229248E-03
      0.335000          0.227578E-03
      0.340000          0.225788E-03
      0.345000          0.223865E-03
      0.350000          0.221806E-03
      0.355000          0.219618E-03
      0.360000          0.217309E-03
      0.365000          0.214891E-03
      0.370000          0.212375E-03
      0.375000          0.209771E-03
      0.380000          0.207085E-03
      0.385000          0.204319E-03
      0.390000          0.201473E-03
      0.395000          0.198543E-03
      0.400000          0.195523E-03
      0.405000          0.192407E-03
      0.410000          0.189192E-03
      0.415000          0.185875E-03
      0.420000          0.182457E-03
      0.425000          0.178942E-03
      0.430000          0.175340E-03
      0.435000          0.171664E-03
      0.440000          0.167929E-03
      0.445000          0.164153E-03
      0.450000          0.160356E-03
      0.455000          0.156558E-03
      0.460000          0.152779E-03
      0.465000          0.149036E-03
      0.470000          0.145346E-03
      0.475000          0.141721E-03
      0.480000          0.138174E-03
      0.485000          0.134714E-03
      0.490000          0.131347E-03
      0.495000          0.128079E-03
      0.500000          0.124914E-03
