 I_abs(s)[cm^-1]/c[mg/ml]
       0.00000          0.141899E-01
      0.500000E-02      0.141102E-01
      0.100000E-01      0.138740E-01
      0.150000E-01      0.134903E-01
      0.200000E-01      0.129733E-01
      0.250000E-01      0.123420E-01
      0.300000E-01      0.116184E-01
      0.350000E-01      0.108266E-01
      0.400000E-01      0.999147E-02
      0.450000E-01      0.913736E-02
      0.500000E-01      0.828671E-02
      0.550000E-01      0.745927E-02
      0.600000E-01      0.667135E-02
      0.650000E-01      0.593541E-02
      0.700000E-01      0.525993E-02
      0.750000E-01      0.464958E-02
      0.800000E-01      0.410559E-02
      0.850000E-01      0.362629E-02
      0.900000E-01      0.320779E-02
      0.950000E-01      0.284466E-02
      0.100000          0.253055E-02
      0.105000          0.225887E-02
      0.110000          0.202321E-02
      0.115000          0.181773E-02
      0.120000          0.163736E-02
      0.125000          0.147792E-02
      0.130000          0.133613E-02
      0.135000          0.120947E-02
      0.140000          0.109612E-02
      0.145000          0.994718E-03
      0.150000          0.904274E-03
      0.155000          0.823977E-03
      0.160000          0.753111E-03
      0.165000          0.690964E-03
      0.170000          0.636796E-03
      0.175000          0.589818E-03
      0.180000          0.549203E-03
      0.185000          0.514106E-03
      0.190000          0.483690E-03
      0.195000          0.457155E-03
      0.200000          0.433754E-03
      0.205000          0.412812E-03
      0.210000          0.393733E-03
      0.215000          0.376004E-03
      0.220000          0.359196E-03
      0.225000          0.342964E-03
      0.230000          0.327052E-03
      0.235000          0.311288E-03
      0.240000          0.295589E-03
      0.245000          0.279963E-03
      0.250000          0.264503E-03
      0.255000          0.249378E-03
      0.260000          0.234821E-03
      0.265000          0.221108E-03
      0.270000          0.208532E-03
      0.275000          0.197371E-03
      0.280000          0.187865E-03
      0.285000          0.180180E-03
      0.290000          0.174394E-03
      0.295000          0.170481E-03
      0.300000          0.168311E-03
      0.305000          0.167655E-03
      0.310000          0.168208E-03
      0.315000          0.169613E-03
      0.320000          0.171496E-03
      0.325000          0.173496E-03
      0.330000          0.175297E-03
      0.335000          0.176654E-03
      0.340000          0.177410E-03
      0.345000          0.177499E-03
      0.350000          0.176944E-03
      0.355000          0.175846E-03
      0.360000          0.174357E-03
      0.365000          0.172661E-03
      0.370000          0.170944E-03
      0.375000          0.169370E-03
      0.380000          0.168059E-03
      0.385000          0.167078E-03
      0.390000          0.166433E-03
      0.395000          0.166070E-03
      0.400000          0.165889E-03
      0.405000          0.165755E-03
      0.410000          0.165520E-03
      0.415000          0.165039E-03
      0.420000          0.164191E-03
      0.425000          0.162889E-03
      0.430000          0.161093E-03
      0.435000          0.158808E-03
      0.440000          0.156087E-03
      0.445000          0.153018E-03
      0.450000          0.149714E-03
      0.455000          0.146299E-03
      0.460000          0.142894E-03
      0.465000          0.139603E-03
      0.470000          0.136502E-03
      0.475000          0.133636E-03
      0.480000          0.131012E-03
      0.485000          0.128603E-03
      0.490000          0.126354E-03
      0.495000          0.124193E-03
      0.500000          0.122034E-03
