 I_abs(s)[cm^-1]/c[mg/ml]
       0.00000          0.133679E-01
      0.500000E-02      0.133137E-01
      0.100000E-01      0.131523E-01
      0.150000E-01      0.128874E-01
      0.200000E-01      0.125251E-01
      0.250000E-01      0.120736E-01
      0.300000E-01      0.115429E-01
      0.350000E-01      0.109446E-01
      0.400000E-01      0.102914E-01
      0.450000E-01      0.959682E-02
      0.500000E-01      0.887461E-02
      0.550000E-01      0.813851E-02
      0.600000E-01      0.740172E-02
      0.650000E-01      0.667663E-02
      0.700000E-01      0.597448E-02
      0.750000E-01      0.530507E-02
      0.800000E-01      0.467662E-02
      0.850000E-01      0.409562E-02
      0.900000E-01      0.356675E-02
      0.950000E-01      0.309294E-02
      0.100000          0.267540E-02
      0.105000          0.231376E-02
      0.110000          0.200624E-02
      0.115000          0.174984E-02
      0.120000          0.154059E-02
      0.125000          0.137379E-02
      0.130000          0.124424E-02
      0.135000          0.114648E-02
      0.140000          0.107499E-02
      0.145000          0.102442E-02
      0.150000          0.989723E-03
      0.155000          0.966307E-03
      0.160000          0.950108E-03
      0.165000          0.937668E-03
      0.170000          0.926161E-03
      0.175000          0.913391E-03
      0.180000          0.897766E-03
      0.185000          0.878253E-03
      0.190000          0.854316E-03
      0.195000          0.825840E-03
      0.200000          0.793058E-03
      0.205000          0.756465E-03
      0.210000          0.716747E-03
      0.215000          0.674710E-03
      0.220000          0.631211E-03
      0.225000          0.587113E-03
      0.230000          0.543238E-03
      0.235000          0.500337E-03
      0.240000          0.459064E-03
      0.245000          0.419968E-03
      0.250000          0.383484E-03
      0.255000          0.349934E-03
      0.260000          0.319535E-03
      0.265000          0.292405E-03
      0.270000          0.268573E-03
      0.275000          0.247994E-03
      0.280000          0.230560E-03
      0.285000          0.216109E-03
      0.290000          0.204438E-03
      0.295000          0.195311E-03
      0.300000          0.188467E-03
      0.305000          0.183628E-03
      0.310000          0.180505E-03
      0.315000          0.178804E-03
      0.320000          0.178230E-03
      0.325000          0.178497E-03
      0.330000          0.179325E-03
      0.335000          0.180453E-03
      0.340000          0.181640E-03
      0.345000          0.182670E-03
      0.350000          0.183355E-03
      0.355000          0.183544E-03
      0.360000          0.183118E-03
      0.365000          0.181998E-03
      0.370000          0.180144E-03
      0.375000          0.177552E-03
      0.380000          0.174256E-03
      0.385000          0.170321E-03
      0.390000          0.165841E-03
      0.395000          0.160934E-03
      0.400000          0.155731E-03
      0.405000          0.150378E-03
      0.410000          0.145020E-03
      0.415000          0.139800E-03
      0.420000          0.134851E-03
      0.425000          0.130290E-03
      0.430000          0.126213E-03
      0.435000          0.122694E-03
      0.440000          0.119780E-03
      0.445000          0.117490E-03
      0.450000          0.115818E-03
      0.455000          0.114733E-03
      0.460000          0.114181E-03
      0.465000          0.114088E-03
      0.470000          0.114369E-03
      0.475000          0.114927E-03
      0.480000          0.115660E-03
      0.485000          0.116468E-03
      0.490000          0.117254E-03
      0.495000          0.117931E-03
      0.500000          0.118422E-03
