 I_abs(s)[cm^-1]/c[mg/ml]
       0.00000          0.140076E-01
      0.500000E-02      0.139427E-01
      0.100000E-01      0.137499E-01
      0.150000E-01      0.134344E-01
      0.200000E-01      0.130048E-01
      0.250000E-01      0.124723E-01
      0.300000E-01      0.118508E-01
      0.350000E-01      0.111561E-01
      0.400000E-01      0.104051E-01
      0.450000E-01      0.961557E-02
      0.500000E-01      0.880501E-02
      0.550000E-01      0.799046E-02
      0.600000E-01      0.718772E-02
      0.650000E-01      0.641097E-02
      0.700000E-01      0.567233E-02
      0.750000E-01      0.498165E-02
      0.800000E-01      0.434635E-02
      0.850000E-01      0.377137E-02
      0.900000E-01      0.325928E-02
      0.950000E-01      0.281045E-02
      0.100000          0.242327E-02
      0.105000          0.209452E-02
      0.110000          0.181966E-02
      0.115000          0.159324E-02
      0.120000          0.140924E-02
      0.125000          0.126141E-02
      0.130000          0.114357E-02
      0.135000          0.104988E-02
      0.140000          0.975032E-03
      0.145000          0.914354E-03
      0.150000          0.863933E-03
      0.155000          0.820620E-03
      0.160000          0.782010E-03
      0.165000          0.746382E-03
      0.170000          0.712615E-03
      0.175000          0.680079E-03
      0.180000          0.648520E-03
      0.185000          0.617954E-03
      0.190000          0.588556E-03
      0.195000          0.560575E-03
      0.200000          0.534265E-03
      0.205000          0.509827E-03
      0.210000          0.487381E-03
      0.215000          0.466952E-03
      0.220000          0.448472E-03
      0.225000          0.431790E-03
      0.230000          0.416697E-03
      0.235000          0.402947E-03
      0.240000          0.390287E-03
      0.245000          0.378478E-03
      0.250000          0.367317E-03
      0.255000          0.356645E-03
      0.260000          0.346357E-03
      0.265000          0.336402E-03
      0.270000          0.326777E-03
      0.275000          0.317516E-03
      0.280000          0.308679E-03
      0.285000          0.300337E-03
      0.290000          0.292558E-03
      0.295000          0.285396E-03
      0.300000          0.278882E-03
      0.305000          0.273015E-03
      0.310000          0.267763E-03
      0.315000          0.263063E-03
      0.320000          0.258825E-03
      0.325000          0.254940E-03
      0.330000          0.251286E-03
      0.335000          0.247742E-03
      0.340000          0.244191E-03
      0.345000          0.240536E-03
      0.350000          0.236699E-03
      0.355000          0.232632E-03
      0.360000          0.228317E-03
      0.365000          0.223766E-03
      0.370000          0.219018E-03
      0.375000          0.214138E-03
      0.380000          0.209209E-03
      0.385000          0.204323E-03
      0.390000          0.199579E-03
      0.395000          0.195072E-03
      0.400000          0.190886E-03
      0.405000          0.187092E-03
      0.410000          0.183738E-03
      0.415000          0.180849E-03
      0.420000          0.178427E-03
      0.425000          0.176445E-03
      0.430000          0.174858E-03
      0.435000          0.173596E-03
      0.440000          0.172577E-03
      0.445000          0.171703E-03
      0.450000          0.170874E-03
      0.455000          0.169987E-03
      0.460000          0.168945E-03
      0.465000          0.167660E-03
      0.470000          0.166060E-03
      0.475000          0.164087E-03
      0.480000          0.161707E-03
      0.485000          0.158903E-03
      0.490000          0.155681E-03
      0.495000          0.152069E-03
      0.500000          0.148112E-03
