 I_abs(s)[cm^-1]/c[mg/ml]
       0.00000          0.139219E-01
      0.500000E-02      0.138754E-01
      0.100000E-01      0.137366E-01
      0.150000E-01      0.135083E-01
      0.200000E-01      0.131948E-01
      0.250000E-01      0.128018E-01
      0.300000E-01      0.123366E-01
      0.350000E-01      0.118078E-01
      0.400000E-01      0.112246E-01
      0.450000E-01      0.105971E-01
      0.500000E-01      0.993598E-02
      0.550000E-01      0.925185E-02
      0.600000E-01      0.855535E-02
      0.650000E-01      0.785675E-02
      0.700000E-01      0.716574E-02
      0.750000E-01      0.649125E-02
      0.800000E-01      0.584121E-02
      0.850000E-01      0.522250E-02
      0.900000E-01      0.464080E-02
      0.950000E-01      0.410054E-02
      0.100000          0.360489E-02
      0.105000          0.315578E-02
      0.110000          0.275396E-02
      0.115000          0.239908E-02
      0.120000          0.208982E-02
      0.125000          0.182398E-02
      0.130000          0.159869E-02
      0.135000          0.141052E-02
      0.140000          0.125565E-02
      0.145000          0.113001E-02
      0.150000          0.102947E-02
      0.155000          0.949922E-03
      0.160000          0.887426E-03
      0.165000          0.838299E-03
      0.170000          0.799195E-03
      0.175000          0.767164E-03
      0.180000          0.739682E-03
      0.185000          0.714675E-03
      0.190000          0.690512E-03
      0.195000          0.665991E-03
      0.200000          0.640304E-03
      0.205000          0.613000E-03
      0.210000          0.583934E-03
      0.215000          0.553211E-03
      0.220000          0.521135E-03
      0.225000          0.488148E-03
      0.230000          0.454783E-03
      0.235000          0.421615E-03
      0.240000          0.389214E-03
      0.245000          0.358118E-03
      0.250000          0.328798E-03
      0.255000          0.301645E-03
      0.260000          0.276949E-03
      0.265000          0.254900E-03
      0.270000          0.235586E-03
      0.275000          0.218997E-03
      0.280000          0.205037E-03
      0.285000          0.193535E-03
      0.290000          0.184261E-03
      0.295000          0.176941E-03
      0.300000          0.171275E-03
      0.305000          0.166950E-03
      0.310000          0.163657E-03
      0.315000          0.161101E-03
      0.320000          0.159013E-03
      0.325000          0.157159E-03
      0.330000          0.155341E-03
      0.335000          0.153405E-03
      0.340000          0.151243E-03
      0.345000          0.148785E-03
      0.350000          0.146003E-03
      0.355000          0.142904E-03
      0.360000          0.139525E-03
      0.365000          0.135927E-03
      0.370000          0.132191E-03
      0.375000          0.128407E-03
      0.380000          0.124673E-03
      0.385000          0.121084E-03
      0.390000          0.117731E-03
      0.395000          0.114696E-03
      0.400000          0.112047E-03
      0.405000          0.109836E-03
      0.410000          0.108098E-03
      0.415000          0.106850E-03
      0.420000          0.106090E-03
      0.425000          0.105798E-03
      0.430000          0.105942E-03
      0.435000          0.106473E-03
      0.440000          0.107331E-03
      0.445000          0.108449E-03
      0.450000          0.109754E-03
      0.455000          0.111169E-03
      0.460000          0.112621E-03
      0.465000          0.114036E-03
      0.470000          0.115347E-03
      0.475000          0.116495E-03
      0.480000          0.117430E-03
      0.485000          0.118111E-03
      0.490000          0.118509E-03
      0.495000          0.118607E-03
      0.500000          0.118398E-03
