 I_abs(s)[cm^-1]/c[mg/ml]
       0.00000          0.137206E-01
      0.500000E-02      0.136732E-01
      0.100000E-01      0.135321E-01
      0.150000E-01      0.132998E-01
      0.200000E-01      0.129809E-01
      0.250000E-01      0.125812E-01
      0.300000E-01      0.121083E-01
      0.350000E-01      0.115708E-01
      0.400000E-01      0.109784E-01
      0.450000E-01      0.103413E-01
      0.500000E-01      0.967054E-02
      0.550000E-01      0.897704E-02
      0.600000E-01      0.827175E-02
      0.650000E-01      0.756528E-02
      0.700000E-01      0.686762E-02
      0.750000E-01      0.618798E-02
      0.800000E-01      0.553459E-02
      0.850000E-01      0.491457E-02
      0.900000E-01      0.433378E-02
      0.950000E-01      0.379681E-02
      0.100000          0.330695E-02
      0.105000          0.286618E-02
      0.110000          0.247524E-02
      0.115000          0.213371E-02
      0.120000          0.184015E-02
      0.125000          0.159219E-02
      0.130000          0.138673E-02
      0.135000          0.122006E-02
      0.140000          0.108805E-02
      0.145000          0.986300E-03
      0.150000          0.910312E-03
      0.155000          0.855610E-03
      0.160000          0.817878E-03
      0.165000          0.793068E-03
      0.170000          0.777486E-03
      0.175000          0.767856E-03
      0.180000          0.761365E-03
      0.185000          0.755685E-03
      0.190000          0.748972E-03
      0.195000          0.739860E-03
      0.200000          0.727421E-03
      0.205000          0.711133E-03
      0.210000          0.690824E-03
      0.215000          0.666616E-03
      0.220000          0.638871E-03
      0.225000          0.608125E-03
      0.230000          0.575036E-03
      0.235000          0.540328E-03
      0.240000          0.504748E-03
      0.245000          0.469021E-03
      0.250000          0.433821E-03
      0.255000          0.399745E-03
      0.260000          0.367296E-03
      0.265000          0.336873E-03
      0.270000          0.308771E-03
      0.275000          0.283177E-03
      0.280000          0.260185E-03
      0.285000          0.239800E-03
      0.290000          0.221953E-03
      0.295000          0.206517E-03
      0.300000          0.193318E-03
      0.305000          0.182154E-03
      0.310000          0.172802E-03
      0.315000          0.165035E-03
      0.320000          0.158629E-03
      0.325000          0.153370E-03
      0.330000          0.149059E-03
      0.335000          0.145521E-03
      0.340000          0.142598E-03
      0.345000          0.140157E-03
      0.350000          0.138085E-03
      0.355000          0.136288E-03
      0.360000          0.134688E-03
      0.365000          0.133223E-03
      0.370000          0.131843E-03
      0.375000          0.130506E-03
      0.380000          0.129179E-03
      0.385000          0.127834E-03
      0.390000          0.126447E-03
      0.395000          0.125002E-03
      0.400000          0.123483E-03
      0.405000          0.121881E-03
      0.410000          0.120190E-03
      0.415000          0.118409E-03
      0.420000          0.116544E-03
      0.425000          0.114604E-03
      0.430000          0.112605E-03
      0.435000          0.110568E-03
      0.440000          0.108519E-03
      0.445000          0.106488E-03
      0.450000          0.104509E-03
      0.455000          0.102616E-03
      0.460000          0.100843E-03
      0.465000          0.992250E-04
      0.470000          0.977919E-04
      0.475000          0.965701E-04
      0.480000          0.955800E-04
      0.485000          0.948354E-04
      0.490000          0.943420E-04
      0.495000          0.940979E-04
      0.500000          0.940927E-04
