 I_abs(s)[cm^-1]/c[mg/ml]
       0.00000          0.135360E-01
      0.500000E-02      0.134844E-01
      0.100000E-01      0.133307E-01
      0.150000E-01      0.130782E-01
      0.200000E-01      0.127325E-01
      0.250000E-01      0.123008E-01
      0.300000E-01      0.117925E-01
      0.350000E-01      0.112179E-01
      0.400000E-01      0.105886E-01
      0.450000E-01      0.991710E-02
      0.500000E-01      0.921598E-02
      0.550000E-01      0.849796E-02
      0.600000E-01      0.777538E-02
      0.650000E-01      0.705988E-02
      0.700000E-01      0.636217E-02
      0.750000E-01      0.569173E-02
      0.800000E-01      0.505666E-02
      0.850000E-01      0.446354E-02
      0.900000E-01      0.391737E-02
      0.950000E-01      0.342154E-02
      0.100000          0.297789E-02
      0.105000          0.258682E-02
      0.110000          0.224739E-02
      0.115000          0.195748E-02
      0.120000          0.171404E-02
      0.125000          0.151322E-02
      0.130000          0.135067E-02
      0.135000          0.122164E-02
      0.140000          0.112128E-02
      0.145000          0.104475E-02
      0.150000          0.987395E-03
      0.155000          0.944884E-03
      0.160000          0.913293E-03
      0.165000          0.889179E-03
      0.170000          0.869618E-03
      0.175000          0.852225E-03
      0.180000          0.835135E-03
      0.185000          0.816982E-03
      0.190000          0.796846E-03
      0.195000          0.774201E-03
      0.200000          0.748852E-03
      0.205000          0.720867E-03
      0.210000          0.690516E-03
      0.215000          0.658204E-03
      0.220000          0.624425E-03
      0.225000          0.589706E-03
      0.230000          0.554575E-03
      0.235000          0.519532E-03
      0.240000          0.485025E-03
      0.245000          0.451442E-03
      0.250000          0.419101E-03
      0.255000          0.388254E-03
      0.260000          0.359091E-03
      0.265000          0.331743E-03
      0.270000          0.306294E-03
      0.275000          0.282792E-03
      0.280000          0.261250E-03
      0.285000          0.241661E-03
      0.290000          0.223998E-03
      0.295000          0.208222E-03
      0.300000          0.194281E-03
      0.305000          0.182113E-03
      0.310000          0.171647E-03
      0.315000          0.162796E-03
      0.320000          0.155466E-03
      0.325000          0.149545E-03
      0.330000          0.144910E-03
      0.335000          0.141424E-03
      0.340000          0.138936E-03
      0.345000          0.137289E-03
      0.350000          0.136317E-03
      0.355000          0.135853E-03
      0.360000          0.135730E-03
      0.365000          0.135790E-03
      0.370000          0.135887E-03
      0.375000          0.135888E-03
      0.380000          0.135685E-03
      0.385000          0.135189E-03
      0.390000          0.134338E-03
      0.395000          0.133097E-03
      0.400000          0.131457E-03
      0.405000          0.129433E-03
      0.410000          0.127063E-03
      0.415000          0.124406E-03
      0.420000          0.121535E-03
      0.425000          0.118536E-03
      0.430000          0.115501E-03
      0.435000          0.112524E-03
      0.440000          0.109697E-03
      0.445000          0.107107E-03
      0.450000          0.104830E-03
      0.455000          0.102930E-03
      0.460000          0.101455E-03
      0.465000          0.100438E-03
      0.470000          0.998949E-04
      0.475000          0.998252E-04
      0.480000          0.100212E-03
      0.485000          0.101023E-03
      0.490000          0.102214E-03
      0.495000          0.103731E-03
      0.500000          0.105510E-03
