 I_abs(s)[cm^-1]/c[mg/ml]
       0.00000          0.135054E-01
      0.500000E-02      0.134537E-01
      0.100000E-01      0.132998E-01
      0.150000E-01      0.130470E-01
      0.200000E-01      0.127006E-01
      0.250000E-01      0.122679E-01
      0.300000E-01      0.117578E-01
      0.350000E-01      0.111809E-01
      0.400000E-01      0.105486E-01
      0.450000E-01      0.987308E-02
      0.500000E-01      0.916711E-02
      0.550000E-01      0.844342E-02
      0.600000E-01      0.771446E-02
      0.650000E-01      0.699207E-02
      0.700000E-01      0.628720E-02
      0.750000E-01      0.560968E-02
      0.800000E-01      0.496794E-02
      0.850000E-01      0.436897E-02
      0.900000E-01      0.381815E-02
      0.950000E-01      0.331926E-02
      0.100000          0.287446E-02
      0.105000          0.248442E-02
      0.110000          0.214837E-02
      0.115000          0.186429E-02
      0.120000          0.162907E-02
      0.125000          0.143874E-02
      0.130000          0.128866E-02
      0.135000          0.117374E-02
      0.140000          0.108864E-02
      0.145000          0.102802E-02
      0.150000          0.986631E-03
      0.155000          0.959555E-03
      0.160000          0.942284E-03
      0.165000          0.930828E-03
      0.170000          0.921790E-03
      0.175000          0.912391E-03
      0.180000          0.900491E-03
      0.185000          0.884562E-03
      0.190000          0.863657E-03
      0.195000          0.837351E-03
      0.200000          0.805674E-03
      0.205000          0.769027E-03
      0.210000          0.728110E-03
      0.215000          0.683829E-03
      0.220000          0.637222E-03
      0.225000          0.589383E-03
      0.230000          0.541399E-03
      0.235000          0.494295E-03
      0.240000          0.448989E-03
      0.245000          0.406260E-03
      0.250000          0.366731E-03
      0.255000          0.330854E-03
      0.260000          0.298914E-03
      0.265000          0.271032E-03
      0.270000          0.247186E-03
      0.275000          0.227222E-03
      0.280000          0.210885E-03
      0.285000          0.197837E-03
      0.290000          0.187682E-03
      0.295000          0.179994E-03
      0.300000          0.174333E-03
      0.305000          0.170269E-03
      0.310000          0.167392E-03
      0.315000          0.165331E-03
      0.320000          0.163760E-03
      0.325000          0.162403E-03
      0.330000          0.161037E-03
      0.335000          0.159493E-03
      0.340000          0.157656E-03
      0.345000          0.155456E-03
      0.350000          0.152866E-03
      0.355000          0.149896E-03
      0.360000          0.146586E-03
      0.365000          0.142999E-03
      0.370000          0.139215E-03
      0.375000          0.135324E-03
      0.380000          0.131424E-03
      0.385000          0.127610E-03
      0.390000          0.123975E-03
      0.395000          0.120607E-03
      0.400000          0.117581E-03
      0.405000          0.114963E-03
      0.410000          0.112805E-03
      0.415000          0.111145E-03
      0.420000          0.110007E-03
      0.425000          0.109399E-03
      0.430000          0.109316E-03
      0.435000          0.109741E-03
      0.440000          0.110640E-03
      0.445000          0.111970E-03
      0.450000          0.113678E-03
      0.455000          0.115698E-03
      0.460000          0.117961E-03
      0.465000          0.120390E-03
      0.470000          0.122902E-03
      0.475000          0.125417E-03
      0.480000          0.127851E-03
      0.485000          0.130123E-03
      0.490000          0.132159E-03
      0.495000          0.133889E-03
      0.500000          0.135252E-03
