 I_abs(s)[cm^-1]/c[mg/ml]
       0.00000          0.137515E-01
      0.500000E-02      0.136900E-01
      0.100000E-01      0.135074E-01
      0.150000E-01      0.132082E-01
      0.200000E-01      0.128003E-01
      0.250000E-01      0.122940E-01
      0.300000E-01      0.117021E-01
      0.350000E-01      0.110390E-01
      0.400000E-01      0.103204E-01
      0.450000E-01      0.956267E-02
      0.500000E-01      0.878231E-02
      0.550000E-01      0.799536E-02
      0.600000E-01      0.721690E-02
      0.650000E-01      0.646063E-02
      0.700000E-01      0.573848E-02
      0.750000E-01      0.506034E-02
      0.800000E-01      0.443395E-02
      0.850000E-01      0.386473E-02
      0.900000E-01      0.335594E-02
      0.950000E-01      0.290866E-02
      0.100000          0.252211E-02
      0.105000          0.219379E-02
      0.110000          0.191986E-02
      0.115000          0.169540E-02
      0.120000          0.151477E-02
      0.125000          0.137193E-02
      0.130000          0.126069E-02
      0.135000          0.117503E-02
      0.140000          0.110928E-02
      0.145000          0.105830E-02
      0.150000          0.101760E-02
      0.155000          0.983410E-03
      0.160000          0.952707E-03
      0.165000          0.923199E-03
      0.170000          0.893271E-03
      0.175000          0.861923E-03
      0.180000          0.828668E-03
      0.185000          0.793436E-03
      0.190000          0.756471E-03
      0.195000          0.718232E-03
      0.200000          0.679302E-03
      0.205000          0.640308E-03
      0.210000          0.601866E-03
      0.215000          0.564524E-03
      0.220000          0.528740E-03
      0.225000          0.494857E-03
      0.230000          0.463106E-03
      0.235000          0.433606E-03
      0.240000          0.406381E-03
      0.245000          0.381375E-03
      0.250000          0.358477E-03
      0.255000          0.337537E-03
      0.260000          0.318390E-03
      0.265000          0.300869E-03
      0.270000          0.284821E-03
      0.275000          0.270112E-03
      0.280000          0.256635E-03
      0.285000          0.244310E-03
      0.290000          0.233078E-03
      0.295000          0.222903E-03
      0.300000          0.213759E-03
      0.305000          0.205627E-03
      0.310000          0.198484E-03
      0.315000          0.192302E-03
      0.320000          0.187038E-03
      0.325000          0.182634E-03
      0.330000          0.179014E-03
      0.335000          0.176086E-03
      0.340000          0.173743E-03
      0.345000          0.171867E-03
      0.350000          0.170335E-03
      0.355000          0.169027E-03
      0.360000          0.167825E-03
      0.365000          0.166628E-03
      0.370000          0.165350E-03
      0.375000          0.163925E-03
      0.380000          0.162314E-03
      0.385000          0.160500E-03
      0.390000          0.158493E-03
      0.395000          0.156323E-03
      0.400000          0.154041E-03
      0.405000          0.151708E-03
      0.410000          0.149400E-03
      0.415000          0.147191E-03
      0.420000          0.145155E-03
      0.425000          0.143356E-03
      0.430000          0.141847E-03
      0.435000          0.140665E-03
      0.440000          0.139824E-03
      0.445000          0.139323E-03
      0.450000          0.139137E-03
      0.455000          0.139224E-03
      0.460000          0.139525E-03
      0.465000          0.139969E-03
      0.470000          0.140477E-03
      0.475000          0.140965E-03
      0.480000          0.141350E-03
      0.485000          0.141556E-03
      0.490000          0.141513E-03
      0.495000          0.141167E-03
      0.500000          0.140476E-03
