 I_abs(s)[cm^-1]/c[mg/ml]
       0.00000          0.135820E-01
      0.500000E-02      0.135271E-01
      0.100000E-01      0.133635E-01
      0.150000E-01      0.130951E-01
      0.200000E-01      0.127282E-01
      0.250000E-01      0.122711E-01
      0.300000E-01      0.117343E-01
      0.350000E-01      0.111295E-01
      0.400000E-01      0.104698E-01
      0.450000E-01      0.976888E-02
      0.500000E-01      0.904077E-02
      0.550000E-01      0.829933E-02
      0.600000E-01      0.755783E-02
      0.650000E-01      0.682867E-02
      0.700000E-01      0.612297E-02
      0.750000E-01      0.545040E-02
      0.800000E-01      0.481894E-02
      0.850000E-01      0.423480E-02
      0.900000E-01      0.370238E-02
      0.950000E-01      0.322428E-02
      0.100000          0.280143E-02
      0.105000          0.243322E-02
      0.110000          0.211767E-02
      0.115000          0.185168E-02
      0.120000          0.163127E-02
      0.125000          0.145179E-02
      0.130000          0.130822E-02
      0.135000          0.119534E-02
      0.140000          0.110799E-02
      0.145000          0.104121E-02
      0.150000          0.990399E-03
      0.155000          0.951410E-03
      0.160000          0.920644E-03
      0.165000          0.895076E-03
      0.170000          0.872261E-03
      0.175000          0.850319E-03
      0.180000          0.827892E-03
      0.185000          0.804087E-03
      0.190000          0.778409E-03
      0.195000          0.750688E-03
      0.200000          0.721002E-03
      0.205000          0.689611E-03
      0.210000          0.656890E-03
      0.215000          0.623276E-03
      0.220000          0.589221E-03
      0.225000          0.555161E-03
      0.230000          0.521491E-03
      0.235000          0.488551E-03
      0.240000          0.456619E-03
      0.245000          0.425912E-03
      0.250000          0.396594E-03
      0.255000          0.368779E-03
      0.260000          0.342546E-03
      0.265000          0.317943E-03
      0.270000          0.295001E-03
      0.275000          0.273738E-03
      0.280000          0.254162E-03
      0.285000          0.236277E-03
      0.290000          0.220080E-03
      0.295000          0.205565E-03
      0.300000          0.192711E-03
      0.305000          0.181490E-03
      0.310000          0.171854E-03
      0.315000          0.163739E-03
      0.320000          0.157061E-03
      0.325000          0.151715E-03
      0.330000          0.147575E-03
      0.335000          0.144499E-03
      0.340000          0.142332E-03
      0.345000          0.140907E-03
      0.350000          0.140055E-03
      0.355000          0.139610E-03
      0.360000          0.139410E-03
      0.365000          0.139310E-03
      0.370000          0.139180E-03
      0.375000          0.138912E-03
      0.380000          0.138425E-03
      0.385000          0.137659E-03
      0.390000          0.136582E-03
      0.395000          0.135188E-03
      0.400000          0.133489E-03
      0.405000          0.131519E-03
      0.410000          0.129328E-03
      0.415000          0.126973E-03
      0.420000          0.124522E-03
      0.425000          0.122043E-03
      0.430000          0.119601E-03
      0.435000          0.117259E-03
      0.440000          0.115069E-03
      0.445000          0.113075E-03
      0.450000          0.111305E-03
      0.455000          0.109780E-03
      0.460000          0.108506E-03
      0.465000          0.107475E-03
      0.470000          0.106674E-03
      0.475000          0.106077E-03
      0.480000          0.105652E-03
      0.485000          0.105365E-03
      0.490000          0.105176E-03
      0.495000          0.105047E-03
      0.500000          0.104941E-03
