 I_abs(s)[cm^-1]/c[mg/ml]
       0.00000          0.139142E-01
      0.500000E-02      0.138449E-01
      0.100000E-01      0.136388E-01
      0.150000E-01      0.133018E-01
      0.200000E-01      0.128429E-01
      0.250000E-01      0.122746E-01
      0.300000E-01      0.116119E-01
      0.350000E-01      0.108718E-01
      0.400000E-01      0.100729E-01
      0.450000E-01      0.923436E-02
      0.500000E-01      0.837548E-02
      0.550000E-01      0.751481E-02
      0.600000E-01      0.666972E-02
      0.650000E-01      0.585578E-02
      0.700000E-01      0.508642E-02
      0.750000E-01      0.437257E-02
      0.800000E-01      0.372253E-02
      0.850000E-01      0.314188E-02
      0.900000E-01      0.263358E-02
      0.950000E-01      0.219811E-02
      0.100000          0.183374E-02
      0.105000          0.153680E-02
      0.110000          0.130211E-02
      0.115000          0.112328E-02
      0.120000          0.993179E-03
      0.125000          0.904232E-03
      0.130000          0.848803E-03
      0.135000          0.819479E-03
      0.140000          0.809311E-03
      0.145000          0.812006E-03
      0.150000          0.822064E-03
      0.155000          0.834856E-03
      0.160000          0.846651E-03
      0.165000          0.854612E-03
      0.170000          0.856742E-03
      0.175000          0.851813E-03
      0.180000          0.839275E-03
      0.185000          0.819150E-03
      0.190000          0.791922E-03
      0.195000          0.758435E-03
      0.200000          0.719785E-03
      0.205000          0.677230E-03
      0.210000          0.632105E-03
      0.215000          0.585749E-03
      0.220000          0.539452E-03
      0.225000          0.494396E-03
      0.230000          0.451630E-03
      0.235000          0.412034E-03
      0.240000          0.376306E-03
      0.245000          0.344956E-03
      0.250000          0.318296E-03
      0.255000          0.296458E-03
      0.260000          0.279393E-03
      0.265000          0.266896E-03
      0.270000          0.258624E-03
      0.275000          0.254121E-03
      0.280000          0.252842E-03
      0.285000          0.254184E-03
      0.290000          0.257512E-03
      0.295000          0.262189E-03
      0.300000          0.267596E-03
      0.305000          0.273163E-03
      0.310000          0.278380E-03
      0.315000          0.282817E-03
      0.320000          0.286130E-03
      0.325000          0.288071E-03
      0.330000          0.288484E-03
      0.335000          0.287306E-03
      0.340000          0.284555E-03
      0.345000          0.280320E-03
      0.350000          0.274753E-03
      0.355000          0.268048E-03
      0.360000          0.260431E-03
      0.365000          0.252144E-03
      0.370000          0.243431E-03
      0.375000          0.234528E-03
      0.380000          0.225654E-03
      0.385000          0.216999E-03
      0.390000          0.208723E-03
      0.395000          0.200954E-03
      0.400000          0.193784E-03
      0.405000          0.187270E-03
      0.410000          0.181440E-03
      0.415000          0.176293E-03
      0.420000          0.171803E-03
      0.425000          0.167926E-03
      0.430000          0.164604E-03
      0.435000          0.161765E-03
      0.440000          0.159333E-03
      0.445000          0.157228E-03
      0.450000          0.155371E-03
      0.455000          0.153684E-03
      0.460000          0.152096E-03
      0.465000          0.150541E-03
      0.470000          0.148963E-03
      0.475000          0.147313E-03
      0.480000          0.145556E-03
      0.485000          0.143663E-03
      0.490000          0.141621E-03
      0.495000          0.139424E-03
      0.500000          0.137079E-03
