 I_abs(s)[cm^-1]/c[mg/ml]
       0.00000          0.135590E-01
      0.500000E-02      0.135055E-01
      0.100000E-01      0.133463E-01
      0.150000E-01      0.130849E-01
      0.200000E-01      0.127272E-01
      0.250000E-01      0.122812E-01
      0.300000E-01      0.117568E-01
      0.350000E-01      0.111652E-01
      0.400000E-01      0.105187E-01
      0.450000E-01      0.983059E-02
      0.500000E-01      0.911429E-02
      0.550000E-01      0.838320E-02
      0.600000E-01      0.765027E-02
      0.650000E-01      0.692765E-02
      0.700000E-01      0.622635E-02
      0.750000E-01      0.555607E-02
      0.800000E-01      0.492491E-02
      0.850000E-01      0.433932E-02
      0.900000E-01      0.380403E-02
      0.950000E-01      0.332200E-02
      0.100000          0.289458E-02
      0.105000          0.252153E-02
      0.110000          0.220126E-02
      0.115000          0.193099E-02
      0.120000          0.170699E-02
      0.125000          0.152478E-02
      0.130000          0.137940E-02
      0.135000          0.126563E-02
      0.140000          0.117821E-02
      0.145000          0.111200E-02
      0.150000          0.106217E-02
      0.155000          0.102429E-02
      0.160000          0.994492E-03
      0.165000          0.969452E-03
      0.170000          0.946467E-03
      0.175000          0.923437E-03
      0.180000          0.898841E-03
      0.185000          0.871691E-03
      0.190000          0.841465E-03
      0.195000          0.808042E-03
      0.200000          0.771615E-03
      0.205000          0.732620E-03
      0.210000          0.691657E-03
      0.215000          0.649421E-03
      0.220000          0.606643E-03
      0.225000          0.564037E-03
      0.230000          0.522267E-03
      0.235000          0.481914E-03
      0.240000          0.443459E-03
      0.245000          0.407280E-03
      0.250000          0.373646E-03
      0.255000          0.342725E-03
      0.260000          0.314595E-03
      0.265000          0.289258E-03
      0.270000          0.266653E-03
      0.275000          0.246674E-03
      0.280000          0.229179E-03
      0.285000          0.214005E-03
      0.290000          0.200978E-03
      0.295000          0.189920E-03
      0.300000          0.180652E-03
      0.305000          0.173003E-03
      0.310000          0.166803E-03
      0.315000          0.161890E-03
      0.320000          0.158107E-03
      0.325000          0.155300E-03
      0.330000          0.153319E-03
      0.335000          0.152017E-03
      0.340000          0.151247E-03
      0.345000          0.150870E-03
      0.350000          0.150748E-03
      0.355000          0.150751E-03
      0.360000          0.150760E-03
      0.365000          0.150667E-03
      0.370000          0.150377E-03
      0.375000          0.149816E-03
      0.380000          0.148926E-03
      0.385000          0.147673E-03
      0.390000          0.146040E-03
      0.395000          0.144036E-03
      0.400000          0.141687E-03
      0.405000          0.139036E-03
      0.410000          0.136143E-03
      0.415000          0.133080E-03
      0.420000          0.129926E-03
      0.425000          0.126763E-03
      0.430000          0.123675E-03
      0.435000          0.120741E-03
      0.440000          0.118030E-03
      0.445000          0.115604E-03
      0.450000          0.113509E-03
      0.455000          0.111775E-03
      0.460000          0.110417E-03
      0.465000          0.109436E-03
      0.470000          0.108812E-03
      0.475000          0.108514E-03
      0.480000          0.108499E-03
      0.485000          0.108710E-03
      0.490000          0.109085E-03
      0.495000          0.109558E-03
      0.500000          0.110060E-03
