 I_abs(s)[cm^-1]/c[mg/ml]
       0.00000          0.138986E-01
      0.500000E-02      0.138490E-01
      0.100000E-01      0.137011E-01
      0.150000E-01      0.134580E-01
      0.200000E-01      0.131248E-01
      0.250000E-01      0.127083E-01
      0.300000E-01      0.122169E-01
      0.350000E-01      0.116603E-01
      0.400000E-01      0.110492E-01
      0.450000E-01      0.103951E-01
      0.500000E-01      0.970976E-02
      0.550000E-01      0.900500E-02
      0.600000E-01      0.829235E-02
      0.650000E-01      0.758279E-02
      0.700000E-01      0.688643E-02
      0.750000E-01      0.621232E-02
      0.800000E-01      0.556831E-02
      0.850000E-01      0.496087E-02
      0.900000E-01      0.439508E-02
      0.950000E-01      0.387458E-02
      0.100000          0.340159E-02
      0.105000          0.297705E-02
      0.110000          0.260064E-02
      0.115000          0.227100E-02
      0.120000          0.198586E-02
      0.125000          0.174221E-02
      0.130000          0.153651E-02
      0.135000          0.136484E-02
      0.140000          0.122311E-02
      0.145000          0.110715E-02
      0.150000          0.101292E-02
      0.155000          0.936588E-03
      0.160000          0.874609E-03
      0.165000          0.823817E-03
      0.170000          0.781448E-03
      0.175000          0.745169E-03
      0.180000          0.713068E-03
      0.185000          0.683644E-03
      0.190000          0.655770E-03
      0.195000          0.628654E-03
      0.200000          0.601794E-03
      0.205000          0.574924E-03
      0.210000          0.547963E-03
      0.215000          0.520971E-03
      0.220000          0.494102E-03
      0.225000          0.467566E-03
      0.230000          0.441594E-03
      0.235000          0.416419E-03
      0.240000          0.392252E-03
      0.245000          0.369269E-03
      0.250000          0.347607E-03
      0.255000          0.327361E-03
      0.260000          0.308579E-03
      0.265000          0.291275E-03
      0.270000          0.275425E-03
      0.275000          0.260982E-03
      0.280000          0.247873E-03
      0.285000          0.236014E-03
      0.290000          0.225312E-03
      0.295000          0.215667E-03
      0.300000          0.206981E-03
      0.305000          0.199156E-03
      0.310000          0.192101E-03
      0.315000          0.185728E-03
      0.320000          0.179958E-03
      0.325000          0.174715E-03
      0.330000          0.169933E-03
      0.335000          0.165550E-03
      0.340000          0.161513E-03
      0.345000          0.157771E-03
      0.350000          0.154284E-03
      0.355000          0.151015E-03
      0.360000          0.147934E-03
      0.365000          0.145017E-03
      0.370000          0.142245E-03
      0.375000          0.139606E-03
      0.380000          0.137093E-03
      0.385000          0.134703E-03
      0.390000          0.132438E-03
      0.395000          0.130303E-03
      0.400000          0.128305E-03
      0.405000          0.126454E-03
      0.410000          0.124758E-03
      0.415000          0.123225E-03
      0.420000          0.121862E-03
      0.425000          0.120673E-03
      0.430000          0.119660E-03
      0.435000          0.118819E-03
      0.440000          0.118144E-03
      0.445000          0.117623E-03
      0.450000          0.117243E-03
      0.455000          0.116984E-03
      0.460000          0.116825E-03
      0.465000          0.116742E-03
      0.470000          0.116710E-03
      0.475000          0.116700E-03
      0.480000          0.116687E-03
      0.485000          0.116643E-03
      0.490000          0.116545E-03
      0.495000          0.116368E-03
      0.500000          0.116094E-03
