 I_abs(s)[cm^-1]/c[mg/ml]
       0.00000          0.135897E-01
      0.500000E-02      0.135371E-01
      0.100000E-01      0.133803E-01
      0.150000E-01      0.131228E-01
      0.200000E-01      0.127702E-01
      0.250000E-01      0.123301E-01
      0.300000E-01      0.118118E-01
      0.350000E-01      0.112261E-01
      0.400000E-01      0.105850E-01
      0.450000E-01      0.990092E-02
      0.500000E-01      0.918703E-02
      0.550000E-01      0.845632E-02
      0.600000E-01      0.772143E-02
      0.650000E-01      0.699435E-02
      0.700000E-01      0.628605E-02
      0.750000E-01      0.560629E-02
      0.800000E-01      0.496338E-02
      0.850000E-01      0.436410E-02
      0.900000E-01      0.381359E-02
      0.950000E-01      0.331535E-02
      0.100000          0.287126E-02
      0.105000          0.248171E-02
      0.110000          0.214570E-02
      0.115000          0.186103E-02
      0.120000          0.162448E-02
      0.125000          0.143203E-02
      0.130000          0.127907E-02
      0.135000          0.116062E-02
      0.140000          0.107153E-02
      0.145000          0.100667E-02
      0.150000          0.961084E-03
      0.155000          0.930137E-03
      0.160000          0.909612E-03
      0.165000          0.895798E-03
      0.170000          0.885529E-03
      0.175000          0.876211E-03
      0.180000          0.865818E-03
      0.185000          0.852861E-03
      0.190000          0.836353E-03
      0.195000          0.815752E-03
      0.200000          0.790895E-03
      0.205000          0.761934E-03
      0.210000          0.729264E-03
      0.215000          0.693460E-03
      0.220000          0.655212E-03
      0.225000          0.615271E-03
      0.230000          0.574404E-03
      0.235000          0.533353E-03
      0.240000          0.492807E-03
      0.245000          0.453378E-03
      0.250000          0.415591E-03
      0.255000          0.379875E-03
      0.260000          0.346560E-03
      0.265000          0.315885E-03
      0.270000          0.287998E-03
      0.275000          0.262969E-03
      0.280000          0.240798E-03
      0.285000          0.221426E-03
      0.290000          0.204744E-03
      0.295000          0.190606E-03
      0.300000          0.178831E-03
      0.305000          0.169221E-03
      0.310000          0.161558E-03
      0.315000          0.155617E-03
      0.320000          0.151168E-03
      0.325000          0.147982E-03
      0.330000          0.145834E-03
      0.335000          0.144508E-03
      0.340000          0.143799E-03
      0.345000          0.143516E-03
      0.350000          0.143486E-03
      0.355000          0.143553E-03
      0.360000          0.143584E-03
      0.365000          0.143466E-03
      0.370000          0.143111E-03
      0.375000          0.142452E-03
      0.380000          0.141446E-03
      0.385000          0.140073E-03
      0.390000          0.138331E-03
      0.395000          0.136240E-03
      0.400000          0.133833E-03
      0.405000          0.131160E-03
      0.410000          0.128278E-03
      0.415000          0.125255E-03
      0.420000          0.122161E-03
      0.425000          0.119069E-03
      0.430000          0.116049E-03
      0.435000          0.113167E-03
      0.440000          0.110484E-03
      0.445000          0.108054E-03
      0.450000          0.105918E-03
      0.455000          0.104109E-03
      0.460000          0.102651E-03
      0.465000          0.101555E-03
      0.470000          0.100820E-03
      0.475000          0.100440E-03
      0.480000          0.100395E-03
      0.485000          0.100660E-03
      0.490000          0.101202E-03
      0.495000          0.101984E-03
      0.500000          0.102961E-03
