 I_abs(s)[cm^-1]/c[mg/ml]
       0.00000          0.135514E-01
      0.500000E-02      0.134977E-01
      0.100000E-01      0.133378E-01
      0.150000E-01      0.130753E-01
      0.200000E-01      0.127162E-01
      0.250000E-01      0.122684E-01
      0.300000E-01      0.117416E-01
      0.350000E-01      0.111471E-01
      0.400000E-01      0.104974E-01
      0.450000E-01      0.980546E-02
      0.500000E-01      0.908488E-02
      0.550000E-01      0.834905E-02
      0.600000E-01      0.761093E-02
      0.650000E-01      0.688270E-02
      0.700000E-01      0.617546E-02
      0.750000E-01      0.549897E-02
      0.800000E-01      0.486142E-02
      0.850000E-01      0.426939E-02
      0.900000E-01      0.372772E-02
      0.950000E-01      0.323953E-02
      0.100000          0.280631E-02
      0.105000          0.242799E-02
      0.110000          0.210314E-02
      0.115000          0.182913E-02
      0.120000          0.160237E-02
      0.125000          0.141852E-02
      0.130000          0.127272E-02
      0.135000          0.115984E-02
      0.140000          0.107464E-02
      0.145000          0.101200E-02
      0.150000          0.967063E-03
      0.155000          0.935343E-03
      0.160000          0.912850E-03
      0.165000          0.896135E-03
      0.170000          0.882329E-03
      0.175000          0.869143E-03
      0.180000          0.854853E-03
      0.185000          0.838254E-03
      0.190000          0.818612E-03
      0.195000          0.795594E-03
      0.200000          0.769199E-03
      0.205000          0.739689E-03
      0.210000          0.707511E-03
      0.215000          0.673242E-03
      0.220000          0.637521E-03
      0.225000          0.601009E-03
      0.230000          0.564345E-03
      0.235000          0.528116E-03
      0.240000          0.492838E-03
      0.245000          0.458942E-03
      0.250000          0.426772E-03
      0.255000          0.396579E-03
      0.260000          0.368535E-03
      0.265000          0.342736E-03
      0.270000          0.319211E-03
      0.275000          0.297937E-03
      0.280000          0.278848E-03
      0.285000          0.261844E-03
      0.290000          0.246802E-03
      0.295000          0.233585E-03
      0.300000          0.222044E-03
      0.305000          0.212026E-03
      0.310000          0.203377E-03
      0.315000          0.195944E-03
      0.320000          0.189578E-03
      0.325000          0.184135E-03
      0.330000          0.179477E-03
      0.335000          0.175471E-03
      0.340000          0.171993E-03
      0.345000          0.168927E-03
      0.350000          0.166166E-03
      0.355000          0.163615E-03
      0.360000          0.161189E-03
      0.365000          0.158813E-03
      0.370000          0.156429E-03
      0.375000          0.153989E-03
      0.380000          0.151459E-03
      0.385000          0.148820E-03
      0.390000          0.146064E-03
      0.395000          0.143195E-03
      0.400000          0.140227E-03
      0.405000          0.137186E-03
      0.410000          0.134102E-03
      0.415000          0.131013E-03
      0.420000          0.127959E-03
      0.425000          0.124984E-03
      0.430000          0.122128E-03
      0.435000          0.119433E-03
      0.440000          0.116935E-03
      0.445000          0.114665E-03
      0.450000          0.112648E-03
      0.455000          0.110902E-03
      0.460000          0.109438E-03
      0.465000          0.108257E-03
      0.470000          0.107353E-03
      0.475000          0.106713E-03
      0.480000          0.106316E-03
      0.485000          0.106136E-03
      0.490000          0.106139E-03
      0.495000          0.106290E-03
      0.500000          0.106548E-03
