 I_abs(s)[cm^-1]/c[mg/ml]
       0.00000          0.134671E-01
      0.500000E-02      0.134136E-01
      0.100000E-01      0.132542E-01
      0.150000E-01      0.129925E-01
      0.200000E-01      0.126343E-01
      0.250000E-01      0.121874E-01
      0.300000E-01      0.116614E-01
      0.350000E-01      0.110676E-01
      0.400000E-01      0.104181E-01
      0.450000E-01      0.972604E-02
      0.500000E-01      0.900492E-02
      0.550000E-01      0.826817E-02
      0.600000E-01      0.752889E-02
      0.650000E-01      0.679943E-02
      0.700000E-01      0.609114E-02
      0.750000E-01      0.541404E-02
      0.800000E-01      0.477667E-02
      0.850000E-01      0.418589E-02
      0.900000E-01      0.364686E-02
      0.950000E-01      0.316297E-02
      0.100000          0.273590E-02
      0.105000          0.236572E-02
      0.110000          0.205100E-02
      0.115000          0.178905E-02
      0.120000          0.157607E-02
      0.125000          0.140741E-02
      0.130000          0.127781E-02
      0.135000          0.118166E-02
      0.140000          0.111316E-02
      0.145000          0.106661E-02
      0.150000          0.103657E-02
      0.155000          0.101798E-02
      0.160000          0.100636E-02
      0.165000          0.997808E-03
      0.170000          0.989141E-03
      0.175000          0.977863E-03
      0.180000          0.962174E-03
      0.185000          0.940930E-03
      0.190000          0.913588E-03
      0.195000          0.880130E-03
      0.200000          0.840974E-03
      0.205000          0.796884E-03
      0.210000          0.748871E-03
      0.215000          0.698106E-03
      0.220000          0.645827E-03
      0.225000          0.593271E-03
      0.230000          0.541604E-03
      0.235000          0.491872E-03
      0.240000          0.444965E-03
      0.245000          0.401589E-03
      0.250000          0.362258E-03
      0.255000          0.327292E-03
      0.260000          0.296826E-03
      0.265000          0.270831E-03
      0.270000          0.249132E-03
      0.275000          0.231437E-03
      0.280000          0.217364E-03
      0.285000          0.206471E-03
      0.290000          0.198280E-03
      0.295000          0.192304E-03
      0.300000          0.188066E-03
      0.305000          0.185116E-03
      0.310000          0.183047E-03
      0.315000          0.181499E-03
      0.320000          0.180171E-03
      0.325000          0.178816E-03
      0.330000          0.177245E-03
      0.335000          0.175322E-03
      0.340000          0.172961E-03
      0.345000          0.170118E-03
      0.350000          0.166787E-03
      0.355000          0.162991E-03
      0.360000          0.158778E-03
      0.365000          0.154215E-03
      0.370000          0.149382E-03
      0.375000          0.144367E-03
      0.380000          0.139262E-03
      0.385000          0.134161E-03
      0.390000          0.129157E-03
      0.395000          0.124338E-03
      0.400000          0.119787E-03
      0.405000          0.115578E-03
      0.410000          0.111776E-03
      0.415000          0.108437E-03
      0.420000          0.105605E-03
      0.425000          0.103311E-03
      0.430000          0.101573E-03
      0.435000          0.100394E-03
      0.440000          0.997647E-04
      0.445000          0.996618E-04
      0.450000          0.100048E-03
      0.455000          0.100874E-03
      0.460000          0.102078E-03
      0.465000          0.103592E-03
      0.470000          0.105338E-03
      0.475000          0.107233E-03
      0.480000          0.109193E-03
      0.485000          0.111134E-03
      0.490000          0.112975E-03
      0.495000          0.114639E-03
      0.500000          0.116058E-03
