 I_abs(s)[cm^-1]/c[mg/ml]
       0.00000          0.135897E-01
      0.500000E-02      0.135369E-01
      0.100000E-01      0.133794E-01
      0.150000E-01      0.131209E-01
      0.200000E-01      0.127670E-01
      0.250000E-01      0.123253E-01
      0.300000E-01      0.118054E-01
      0.350000E-01      0.112181E-01
      0.400000E-01      0.105755E-01
      0.450000E-01      0.989045E-02
      0.500000E-01      0.917599E-02
      0.550000E-01      0.844532E-02
      0.600000E-01      0.771121E-02
      0.650000E-01      0.698570E-02
      0.700000E-01      0.627983E-02
      0.750000E-01      0.560335E-02
      0.800000E-01      0.496456E-02
      0.850000E-01      0.437015E-02
      0.900000E-01      0.382516E-02
      0.950000E-01      0.333292E-02
      0.100000          0.289512E-02
      0.105000          0.251193E-02
      0.110000          0.218211E-02
      0.115000          0.190320E-02
      0.120000          0.167171E-02
      0.125000          0.148339E-02
      0.130000          0.133339E-02
      0.135000          0.121654E-02
      0.140000          0.112753E-02
      0.145000          0.106112E-02
      0.150000          0.101231E-02
      0.155000          0.976478E-03
      0.160000          0.949474E-03
      0.165000          0.927722E-03
      0.170000          0.908246E-03
      0.175000          0.888690E-03
      0.180000          0.867310E-03
      0.185000          0.842927E-03
      0.190000          0.814886E-03
      0.195000          0.782976E-03
      0.200000          0.747364E-03
      0.205000          0.708507E-03
      0.210000          0.667072E-03
      0.215000          0.623866E-03
      0.220000          0.579756E-03
      0.225000          0.535617E-03
      0.230000          0.492276E-03
      0.235000          0.450474E-03
      0.240000          0.410843E-03
      0.245000          0.373880E-03
      0.250000          0.339950E-03
      0.255000          0.309280E-03
      0.260000          0.281972E-03
      0.265000          0.258013E-03
      0.270000          0.237296E-03
      0.275000          0.219636E-03
      0.280000          0.204791E-03
      0.285000          0.192481E-03
      0.290000          0.182407E-03
      0.295000          0.174265E-03
      0.300000          0.167755E-03
      0.305000          0.162599E-03
      0.310000          0.158540E-03
      0.315000          0.155351E-03
      0.320000          0.152836E-03
      0.325000          0.150828E-03
      0.330000          0.149191E-03
      0.335000          0.147815E-03
      0.340000          0.146612E-03
      0.345000          0.145515E-03
      0.350000          0.144474E-03
      0.355000          0.143452E-03
      0.360000          0.142420E-03
      0.365000          0.141361E-03
      0.370000          0.140259E-03
      0.375000          0.139108E-03
      0.380000          0.137901E-03
      0.385000          0.136637E-03
      0.390000          0.135316E-03
      0.395000          0.133942E-03
      0.400000          0.132522E-03
      0.405000          0.131065E-03
      0.410000          0.129582E-03
      0.415000          0.128088E-03
      0.420000          0.126600E-03
      0.425000          0.125136E-03
      0.430000          0.123718E-03
      0.435000          0.122367E-03
      0.440000          0.121104E-03
      0.445000          0.119950E-03
      0.450000          0.118924E-03
      0.455000          0.118045E-03
      0.460000          0.117326E-03
      0.465000          0.116777E-03
      0.470000          0.116406E-03
      0.475000          0.116213E-03
      0.480000          0.116193E-03
      0.485000          0.116337E-03
      0.490000          0.116630E-03
      0.495000          0.117052E-03
      0.500000          0.117576E-03
