 I_abs(s)[cm^-1]/c[mg/ml]
       0.00000          0.141718E-01
      0.500000E-02      0.141142E-01
      0.100000E-01      0.139427E-01
      0.150000E-01      0.136616E-01
      0.200000E-01      0.132775E-01
      0.250000E-01      0.127994E-01
      0.300000E-01      0.122383E-01
      0.350000E-01      0.116070E-01
      0.400000E-01      0.109193E-01
      0.450000E-01      0.101896E-01
      0.500000E-01      0.943261E-02
      0.550000E-01      0.866291E-02
      0.600000E-01      0.789422E-02
      0.650000E-01      0.713926E-02
      0.700000E-01      0.640933E-02
      0.750000E-01      0.571410E-02
      0.800000E-01      0.506140E-02
      0.850000E-01      0.445718E-02
      0.900000E-01      0.390546E-02
      0.950000E-01      0.340843E-02
      0.100000          0.296656E-02
      0.105000          0.257879E-02
      0.110000          0.224276E-02
      0.115000          0.195508E-02
      0.120000          0.171155E-02
      0.125000          0.150748E-02
      0.130000          0.133792E-02
      0.135000          0.119786E-02
      0.140000          0.108249E-02
      0.145000          0.987299E-03
      0.150000          0.908224E-03
      0.155000          0.841730E-03
      0.160000          0.784840E-03
      0.165000          0.735150E-03
      0.170000          0.690797E-03
      0.175000          0.650415E-03
      0.180000          0.613065E-03
      0.185000          0.578164E-03
      0.190000          0.545404E-03
      0.195000          0.514668E-03
      0.200000          0.485968E-03
      0.205000          0.459372E-03
      0.210000          0.434962E-03
      0.215000          0.412793E-03
      0.220000          0.392868E-03
      0.225000          0.375132E-03
      0.230000          0.359466E-03
      0.235000          0.345694E-03
      0.240000          0.333602E-03
      0.245000          0.322949E-03
      0.250000          0.313488E-03
      0.255000          0.304982E-03
      0.260000          0.297218E-03
      0.265000          0.290021E-03
      0.270000          0.283255E-03
      0.275000          0.276830E-03
      0.280000          0.270697E-03
      0.285000          0.264843E-03
      0.290000          0.259285E-03
      0.295000          0.254057E-03
      0.300000          0.249200E-03
      0.305000          0.244755E-03
      0.310000          0.240751E-03
      0.315000          0.237202E-03
      0.320000          0.234098E-03
      0.325000          0.231407E-03
      0.330000          0.229075E-03
      0.335000          0.227029E-03
      0.340000          0.225181E-03
      0.345000          0.223433E-03
      0.350000          0.221687E-03
      0.355000          0.219849E-03
      0.360000          0.217836E-03
      0.365000          0.215579E-03
      0.370000          0.213033E-03
      0.375000          0.210172E-03
      0.380000          0.206995E-03
      0.385000          0.203521E-03
      0.390000          0.199791E-03
      0.395000          0.195861E-03
      0.400000          0.191798E-03
      0.405000          0.187678E-03
      0.410000          0.183576E-03
      0.415000          0.179568E-03
      0.420000          0.175718E-03
      0.425000          0.172083E-03
      0.430000          0.168703E-03
      0.435000          0.165607E-03
      0.440000          0.162805E-03
      0.445000          0.160292E-03
      0.450000          0.158051E-03
      0.455000          0.156050E-03
      0.460000          0.154250E-03
      0.465000          0.152604E-03
      0.470000          0.151063E-03
      0.475000          0.149574E-03
      0.480000          0.148089E-03
      0.485000          0.146564E-03
      0.490000          0.144960E-03
      0.495000          0.143245E-03
      0.500000          0.141398E-03
