 I_abs(s)[cm^-1]/c[mg/ml]
       0.00000          0.140778E-01
      0.500000E-02      0.140303E-01
      0.100000E-01      0.138889E-01
      0.150000E-01      0.136562E-01
      0.200000E-01      0.133371E-01
      0.250000E-01      0.129379E-01
      0.300000E-01      0.124663E-01
      0.350000E-01      0.119314E-01
      0.400000E-01      0.113432E-01
      0.450000E-01      0.107123E-01
      0.500000E-01      0.100497E-01
      0.550000E-01      0.936651E-02
      0.600000E-01      0.867355E-02
      0.650000E-01      0.798113E-02
      0.700000E-01      0.729883E-02
      0.750000E-01      0.663525E-02
      0.800000E-01      0.599790E-02
      0.850000E-01      0.539304E-02
      0.900000E-01      0.482564E-02
      0.950000E-01      0.429935E-02
      0.100000          0.381652E-02
      0.105000          0.337829E-02
      0.110000          0.298466E-02
      0.115000          0.263462E-02
      0.120000          0.232634E-02
      0.125000          0.205728E-02
      0.130000          0.182438E-02
      0.135000          0.162423E-02
      0.140000          0.145323E-02
      0.145000          0.130773E-02
      0.150000          0.118415E-02
      0.155000          0.107909E-02
      0.160000          0.989420E-03
      0.165000          0.912338E-03
      0.170000          0.845396E-03
      0.175000          0.786524E-03
      0.180000          0.734027E-03
      0.185000          0.686560E-03
      0.190000          0.643099E-03
      0.195000          0.602902E-03
      0.200000          0.565457E-03
      0.205000          0.530438E-03
      0.210000          0.497653E-03
      0.215000          0.467006E-03
      0.220000          0.438451E-03
      0.225000          0.411965E-03
      0.230000          0.387518E-03
      0.235000          0.365060E-03
      0.240000          0.344510E-03
      0.245000          0.325750E-03
      0.250000          0.308630E-03
      0.255000          0.292972E-03
      0.260000          0.278582E-03
      0.265000          0.265257E-03
      0.270000          0.252801E-03
      0.275000          0.241033E-03
      0.280000          0.229798E-03
      0.285000          0.218972E-03
      0.290000          0.208468E-03
      0.295000          0.198239E-03
      0.300000          0.188274E-03
      0.305000          0.178597E-03
      0.310000          0.169261E-03
      0.315000          0.160340E-03
      0.320000          0.151924E-03
      0.325000          0.144106E-03
      0.330000          0.136978E-03
      0.335000          0.130624E-03
      0.340000          0.125110E-03
      0.345000          0.120482E-03
      0.350000          0.116760E-03
      0.355000          0.113941E-03
      0.360000          0.111993E-03
      0.365000          0.110862E-03
      0.370000          0.110470E-03
      0.375000          0.110723E-03
      0.380000          0.111513E-03
      0.385000          0.112722E-03
      0.390000          0.114231E-03
      0.395000          0.115920E-03
      0.400000          0.117678E-03
      0.405000          0.119401E-03
      0.410000          0.121000E-03
      0.415000          0.122400E-03
      0.420000          0.123545E-03
      0.425000          0.124394E-03
      0.430000          0.124926E-03
      0.435000          0.125134E-03
      0.440000          0.125025E-03
      0.445000          0.124622E-03
      0.450000          0.123955E-03
      0.455000          0.123063E-03
      0.460000          0.121989E-03
      0.465000          0.120781E-03
      0.470000          0.119484E-03
      0.475000          0.118143E-03
      0.480000          0.116801E-03
      0.485000          0.115492E-03
      0.490000          0.114248E-03
      0.495000          0.113093E-03
      0.500000          0.112043E-03
