 I_abs(s)[cm^-1]/c[mg/ml]
       0.00000          0.138133E-01
      0.500000E-02      0.137609E-01
      0.100000E-01      0.136046E-01
      0.150000E-01      0.133479E-01
      0.200000E-01      0.129964E-01
      0.250000E-01      0.125577E-01
      0.300000E-01      0.120411E-01
      0.350000E-01      0.114572E-01
      0.400000E-01      0.108179E-01
      0.450000E-01      0.101357E-01
      0.500000E-01      0.942345E-02
      0.550000E-01      0.869405E-02
      0.600000E-01      0.795995E-02
      0.650000E-01      0.723291E-02
      0.700000E-01      0.652370E-02
      0.750000E-01      0.584183E-02
      0.800000E-01      0.519542E-02
      0.850000E-01      0.459104E-02
      0.900000E-01      0.403365E-02
      0.950000E-01      0.352662E-02
      0.100000          0.307176E-02
      0.105000          0.266944E-02
      0.110000          0.231871E-02
      0.115000          0.201748E-02
      0.120000          0.176273E-02
      0.125000          0.155070E-02
      0.130000          0.137711E-02
      0.135000          0.123735E-02
      0.140000          0.112669E-02
      0.145000          0.104045E-02
      0.150000          0.974101E-03
      0.155000          0.923461E-03
      0.160000          0.884722E-03
      0.165000          0.854537E-03
      0.170000          0.830051E-03
      0.175000          0.808905E-03
      0.180000          0.789230E-03
      0.185000          0.769610E-03
      0.190000          0.749042E-03
      0.195000          0.726887E-03
      0.200000          0.702807E-03
      0.205000          0.676711E-03
      0.210000          0.648697E-03
      0.215000          0.619000E-03
      0.220000          0.587949E-03
      0.225000          0.555925E-03
      0.230000          0.523330E-03
      0.235000          0.490567E-03
      0.240000          0.458019E-03
      0.245000          0.426039E-03
      0.250000          0.394946E-03
      0.255000          0.365020E-03
      0.260000          0.336503E-03
      0.265000          0.309600E-03
      0.270000          0.284481E-03
      0.275000          0.261284E-03
      0.280000          0.240113E-03
      0.285000          0.221043E-03
      0.290000          0.204118E-03
      0.295000          0.189348E-03
      0.300000          0.176714E-03
      0.305000          0.166161E-03
      0.310000          0.157604E-03
      0.315000          0.150924E-03
      0.320000          0.145975E-03
      0.325000          0.142581E-03
      0.330000          0.140546E-03
      0.335000          0.139655E-03
      0.340000          0.139686E-03
      0.345000          0.140411E-03
      0.350000          0.141608E-03
      0.355000          0.143065E-03
      0.360000          0.144591E-03
      0.365000          0.146015E-03
      0.370000          0.147198E-03
      0.375000          0.148031E-03
      0.380000          0.148438E-03
      0.385000          0.148379E-03
      0.390000          0.147841E-03
      0.395000          0.146843E-03
      0.400000          0.145426E-03
      0.405000          0.143650E-03
      0.410000          0.141589E-03
      0.415000          0.139326E-03
      0.420000          0.136944E-03
      0.425000          0.134522E-03
      0.430000          0.132135E-03
      0.435000          0.129843E-03
      0.440000          0.127695E-03
      0.445000          0.125724E-03
      0.450000          0.123949E-03
      0.455000          0.122374E-03
      0.460000          0.120989E-03
      0.465000          0.119777E-03
      0.470000          0.118709E-03
      0.475000          0.117753E-03
      0.480000          0.116876E-03
      0.485000          0.116045E-03
      0.490000          0.115227E-03
      0.495000          0.114398E-03
      0.500000          0.113539E-03
