 I_abs(s)[cm^-1]/c[mg/ml]
       0.00000          0.136281E-01
      0.500000E-02      0.135739E-01
      0.100000E-01      0.134123E-01
      0.150000E-01      0.131471E-01
      0.200000E-01      0.127843E-01
      0.250000E-01      0.123321E-01
      0.300000E-01      0.118006E-01
      0.350000E-01      0.112012E-01
      0.400000E-01      0.105467E-01
      0.450000E-01      0.985038E-02
      0.500000E-01      0.912603E-02
      0.550000E-01      0.838724E-02
      0.600000E-01      0.764716E-02
      0.650000E-01      0.691805E-02
      0.700000E-01      0.621106E-02
      0.750000E-01      0.553589E-02
      0.800000E-01      0.490067E-02
      0.850000E-01      0.431182E-02
      0.900000E-01      0.377397E-02
      0.950000E-01      0.329004E-02
      0.100000          0.286123E-02
      0.105000          0.248721E-02
      0.110000          0.216628E-02
      0.115000          0.189557E-02
      0.120000          0.167123E-02
      0.125000          0.148874E-02
      0.130000          0.134310E-02
      0.135000          0.122904E-02
      0.140000          0.114129E-02
      0.145000          0.107472E-02
      0.150000          0.102451E-02
      0.155000          0.986282E-03
      0.160000          0.956162E-03
      0.165000          0.930874E-03
      0.170000          0.907738E-03
      0.175000          0.884680E-03
      0.180000          0.860197E-03
      0.185000          0.833313E-03
      0.190000          0.803517E-03
      0.195000          0.770689E-03
      0.200000          0.735025E-03
      0.205000          0.696962E-03
      0.210000          0.657099E-03
      0.215000          0.616131E-03
      0.220000          0.574792E-03
      0.225000          0.533799E-03
      0.230000          0.493818E-03
      0.235000          0.455433E-03
      0.240000          0.419123E-03
      0.245000          0.385260E-03
      0.250000          0.354099E-03
      0.255000          0.325788E-03
      0.260000          0.300377E-03
      0.265000          0.277828E-03
      0.270000          0.258033E-03
      0.275000          0.240829E-03
      0.280000          0.226015E-03
      0.285000          0.213365E-03
      0.290000          0.202641E-03
      0.295000          0.193607E-03
      0.300000          0.186034E-03
      0.305000          0.179710E-03
      0.310000          0.174441E-03
      0.315000          0.170055E-03
      0.320000          0.166403E-03
      0.325000          0.163358E-03
      0.330000          0.160812E-03
      0.335000          0.158675E-03
      0.340000          0.156873E-03
      0.345000          0.155344E-03
      0.350000          0.154035E-03
      0.355000          0.152900E-03
      0.360000          0.151899E-03
      0.365000          0.150997E-03
      0.370000          0.150158E-03
      0.375000          0.149352E-03
      0.380000          0.148550E-03
      0.385000          0.147724E-03
      0.390000          0.146850E-03
      0.395000          0.145907E-03
      0.400000          0.144876E-03
      0.405000          0.143746E-03
      0.410000          0.142508E-03
      0.415000          0.141159E-03
      0.420000          0.139701E-03
      0.425000          0.138143E-03
      0.430000          0.136497E-03
      0.435000          0.134780E-03
      0.440000          0.133012E-03
      0.445000          0.131216E-03
      0.450000          0.129415E-03
      0.455000          0.127635E-03
      0.460000          0.125898E-03
      0.465000          0.124225E-03
      0.470000          0.122633E-03
      0.475000          0.121136E-03
      0.480000          0.119743E-03
      0.485000          0.118456E-03
      0.490000          0.117275E-03
      0.495000          0.116192E-03
      0.500000          0.115195E-03
