 I_abs(s)[cm^-1]/c[mg/ml]
       0.00000          0.136589E-01
      0.500000E-02      0.136042E-01
      0.100000E-01      0.134413E-01
      0.150000E-01      0.131741E-01
      0.200000E-01      0.128087E-01
      0.250000E-01      0.123535E-01
      0.300000E-01      0.118187E-01
      0.350000E-01      0.112160E-01
      0.400000E-01      0.105583E-01
      0.450000E-01      0.985934E-02
      0.500000E-01      0.913286E-02
      0.550000E-01      0.839266E-02
      0.600000E-01      0.765194E-02
      0.650000E-01      0.692299E-02
      0.700000E-01      0.621690E-02
      0.750000E-01      0.554329E-02
      0.800000E-01      0.491015E-02
      0.850000E-01      0.432369E-02
      0.900000E-01      0.378836E-02
      0.950000E-01      0.330683E-02
      0.100000          0.288009E-02
      0.105000          0.250762E-02
      0.110000          0.218754E-02
      0.115000          0.191685E-02
      0.120000          0.169164E-02
      0.125000          0.150738E-02
      0.130000          0.135909E-02
      0.135000          0.124163E-02
      0.140000          0.114988E-02
      0.145000          0.107891E-02
      0.150000          0.102411E-02
      0.155000          0.981370E-03
      0.160000          0.947058E-03
      0.165000          0.918136E-03
      0.170000          0.892139E-03
      0.175000          0.867169E-03
      0.180000          0.841856E-03
      0.185000          0.815302E-03
      0.190000          0.787019E-03
      0.195000          0.756852E-03
      0.200000          0.724910E-03
      0.205000          0.691493E-03
      0.210000          0.657021E-03
      0.215000          0.621984E-03
      0.220000          0.586884E-03
      0.225000          0.552203E-03
      0.230000          0.518372E-03
      0.235000          0.485752E-03
      0.240000          0.454625E-03
      0.245000          0.425190E-03
      0.250000          0.397572E-03
      0.255000          0.371823E-03
      0.260000          0.347939E-03
      0.265000          0.325869E-03
      0.270000          0.305528E-03
      0.275000          0.286814E-03
      0.280000          0.269610E-03
      0.285000          0.253802E-03
      0.290000          0.239279E-03
      0.295000          0.225943E-03
      0.300000          0.213707E-03
      0.305000          0.202497E-03
      0.310000          0.192255E-03
      0.315000          0.182933E-03
      0.320000          0.174491E-03
      0.325000          0.166898E-03
      0.330000          0.160123E-03
      0.335000          0.154139E-03
      0.340000          0.148915E-03
      0.345000          0.144417E-03
      0.350000          0.140606E-03
      0.355000          0.137438E-03
      0.360000          0.134864E-03
      0.365000          0.132829E-03
      0.370000          0.131273E-03
      0.375000          0.130135E-03
      0.380000          0.129352E-03
      0.385000          0.128860E-03
      0.390000          0.128597E-03
      0.395000          0.128504E-03
      0.400000          0.128528E-03
      0.405000          0.128621E-03
      0.410000          0.128740E-03
      0.415000          0.128851E-03
      0.420000          0.128927E-03
      0.425000          0.128947E-03
      0.430000          0.128899E-03
      0.435000          0.128774E-03
      0.440000          0.128571E-03
      0.445000          0.128293E-03
      0.450000          0.127944E-03
      0.455000          0.127531E-03
      0.460000          0.127062E-03
      0.465000          0.126543E-03
      0.470000          0.125982E-03
      0.475000          0.125380E-03
      0.480000          0.124740E-03
      0.485000          0.124061E-03
      0.490000          0.123338E-03
      0.495000          0.122566E-03
      0.500000          0.121738E-03
