 I_abs(s)[cm^-1]/c[mg/ml]
       0.00000          0.135130E-01
      0.500000E-02      0.134577E-01
      0.100000E-01      0.132931E-01
      0.150000E-01      0.130230E-01
      0.200000E-01      0.126536E-01
      0.250000E-01      0.121932E-01
      0.300000E-01      0.116523E-01
      0.350000E-01      0.110425E-01
      0.400000E-01      0.103770E-01
      0.450000E-01      0.966969E-02
      0.500000E-01      0.893459E-02
      0.550000E-01      0.818583E-02
      0.600000E-01      0.743700E-02
      0.650000E-01      0.670082E-02
      0.700000E-01      0.598885E-02
      0.750000E-01      0.531115E-02
      0.800000E-01      0.467616E-02
      0.850000E-01      0.409051E-02
      0.900000E-01      0.355896E-02
      0.950000E-01      0.308443E-02
      0.100000          0.266803E-02
      0.105000          0.230923E-02
      0.110000          0.200602E-02
      0.115000          0.175510E-02
      0.120000          0.155216E-02
      0.125000          0.139210E-02
      0.130000          0.126933E-02
      0.135000          0.117797E-02
      0.140000          0.111215E-02
      0.145000          0.106616E-02
      0.150000          0.103468E-02
      0.155000          0.101288E-02
      0.160000          0.996571E-03
      0.165000          0.982232E-03
      0.170000          0.967068E-03
      0.175000          0.948999E-03
      0.180000          0.926624E-03
      0.185000          0.899172E-03
      0.190000          0.866417E-03
      0.195000          0.828595E-03
      0.200000          0.786305E-03
      0.205000          0.740412E-03
      0.210000          0.691951E-03
      0.215000          0.642041E-03
      0.220000          0.591807E-03
      0.225000          0.542317E-03
      0.230000          0.494529E-03
      0.235000          0.449259E-03
      0.240000          0.407155E-03
      0.245000          0.368690E-03
      0.250000          0.334163E-03
      0.255000          0.303710E-03
      0.260000          0.277320E-03
      0.265000          0.254860E-03
      0.270000          0.236099E-03
      0.275000          0.220734E-03
      0.280000          0.208412E-03
      0.285000          0.198755E-03
      0.290000          0.191381E-03
      0.295000          0.185913E-03
      0.300000          0.181998E-03
      0.305000          0.179310E-03
      0.310000          0.177557E-03
      0.315000          0.176482E-03
      0.320000          0.175861E-03
      0.325000          0.175505E-03
      0.330000          0.175249E-03
      0.335000          0.174959E-03
      0.340000          0.174518E-03
      0.345000          0.173833E-03
      0.350000          0.172825E-03
      0.355000          0.171432E-03
      0.360000          0.169608E-03
      0.365000          0.167323E-03
      0.370000          0.164562E-03
      0.375000          0.161329E-03
      0.380000          0.157644E-03
      0.385000          0.153549E-03
      0.390000          0.149099E-03
      0.395000          0.144372E-03
      0.400000          0.139455E-03
      0.405000          0.134454E-03
      0.410000          0.129480E-03
      0.415000          0.124651E-03
      0.420000          0.120082E-03
      0.425000          0.115887E-03
      0.430000          0.112168E-03
      0.435000          0.109012E-03
      0.440000          0.106486E-03
      0.445000          0.104637E-03
      0.450000          0.103484E-03
      0.455000          0.103022E-03
      0.460000          0.103217E-03
      0.465000          0.104010E-03
      0.470000          0.105320E-03
      0.475000          0.107044E-03
      0.480000          0.109066E-03
      0.485000          0.111257E-03
      0.490000          0.113486E-03
      0.495000          0.115620E-03
      0.500000          0.117536E-03
