 I_abs(s)[cm^-1]/c[mg/ml]
       0.00000          0.137824E-01
      0.500000E-02      0.137293E-01
      0.100000E-01      0.135712E-01
      0.150000E-01      0.133116E-01
      0.200000E-01      0.129562E-01
      0.250000E-01      0.125128E-01
      0.300000E-01      0.119908E-01
      0.350000E-01      0.114013E-01
      0.400000E-01      0.107562E-01
      0.450000E-01      0.100684E-01
      0.500000E-01      0.935101E-02
      0.550000E-01      0.861710E-02
      0.600000E-01      0.787937E-02
      0.650000E-01      0.714975E-02
      0.700000E-01      0.643913E-02
      0.750000E-01      0.575712E-02
      0.800000E-01      0.511187E-02
      0.850000E-01      0.450995E-02
      0.900000E-01      0.395627E-02
      0.950000E-01      0.345411E-02
      0.100000          0.300515E-02
      0.105000          0.260961E-02
      0.110000          0.226636E-02
      0.115000          0.197312E-02
      0.120000          0.172667E-02
      0.125000          0.152307E-02
      0.130000          0.135782E-02
      0.135000          0.122616E-02
      0.140000          0.112319E-02
      0.145000          0.104408E-02
      0.150000          0.984194E-03
      0.155000          0.939256E-03
      0.160000          0.905395E-03
      0.165000          0.879226E-03
      0.170000          0.857879E-03
      0.175000          0.839009E-03
      0.180000          0.820778E-03
      0.185000          0.801825E-03
      0.190000          0.781219E-03
      0.195000          0.758403E-03
      0.200000          0.733137E-03
      0.205000          0.705430E-03
      0.210000          0.675489E-03
      0.215000          0.643655E-03
      0.220000          0.610360E-03
      0.225000          0.576083E-03
      0.230000          0.541315E-03
      0.235000          0.506534E-03
      0.240000          0.472185E-03
      0.245000          0.438669E-03
      0.250000          0.406335E-03
      0.255000          0.375477E-03
      0.260000          0.346335E-03
      0.265000          0.319096E-03
      0.270000          0.293899E-03
      0.275000          0.270840E-03
      0.280000          0.249971E-03
      0.285000          0.231311E-03
      0.290000          0.214841E-03
      0.295000          0.200515E-03
      0.300000          0.188253E-03
      0.305000          0.177950E-03
      0.310000          0.169477E-03
      0.315000          0.162679E-03
      0.320000          0.157384E-03
      0.325000          0.153405E-03
      0.330000          0.150540E-03
      0.335000          0.148583E-03
      0.340000          0.147328E-03
      0.345000          0.146573E-03
      0.350000          0.146126E-03
      0.355000          0.145812E-03
      0.360000          0.145478E-03
      0.365000          0.144997E-03
      0.370000          0.144269E-03
      0.375000          0.143226E-03
      0.380000          0.141829E-03
      0.385000          0.140071E-03
      0.390000          0.137972E-03
      0.395000          0.135575E-03
      0.400000          0.132946E-03
      0.405000          0.130162E-03
      0.410000          0.127312E-03
      0.415000          0.124488E-03
      0.420000          0.121780E-03
      0.425000          0.119271E-03
      0.430000          0.117033E-03
      0.435000          0.115124E-03
      0.440000          0.113583E-03
      0.445000          0.112434E-03
      0.450000          0.111679E-03
      0.455000          0.111302E-03
      0.460000          0.111274E-03
      0.465000          0.111547E-03
      0.470000          0.112066E-03
      0.475000          0.112766E-03
      0.480000          0.113579E-03
      0.485000          0.114436E-03
      0.490000          0.115270E-03
      0.495000          0.116021E-03
      0.500000          0.116636E-03
