 I_abs(s)[cm^-1]/c[mg/ml]
       0.00000          0.136358E-01
      0.500000E-02      0.135849E-01
      0.100000E-01      0.134333E-01
      0.150000E-01      0.131840E-01
      0.200000E-01      0.128423E-01
      0.250000E-01      0.124152E-01
      0.300000E-01      0.119113E-01
      0.350000E-01      0.113407E-01
      0.400000E-01      0.107144E-01
      0.450000E-01      0.100443E-01
      0.500000E-01      0.934267E-02
      0.550000E-01      0.862193E-02
      0.600000E-01      0.789418E-02
      0.650000E-01      0.717100E-02
      0.700000E-01      0.646314E-02
      0.750000E-01      0.578029E-02
      0.800000E-01      0.513087E-02
      0.850000E-01      0.452188E-02
      0.900000E-01      0.395884E-02
      0.950000E-01      0.344572E-02
      0.100000          0.298497E-02
      0.105000          0.257756E-02
      0.110000          0.222311E-02
      0.115000          0.192000E-02
      0.120000          0.166554E-02
      0.125000          0.145620E-02
      0.130000          0.128774E-02
      0.135000          0.115548E-02
      0.140000          0.105444E-02
      0.145000          0.979575E-03
      0.150000          0.925925E-03
      0.155000          0.888764E-03
      0.160000          0.863725E-03
      0.165000          0.846900E-03
      0.170000          0.834903E-03
      0.175000          0.824910E-03
      0.180000          0.814672E-03
      0.185000          0.802507E-03
      0.190000          0.787263E-03
      0.195000          0.768272E-03
      0.200000          0.745290E-03
      0.205000          0.718425E-03
      0.210000          0.688065E-03
      0.215000          0.654803E-03
      0.220000          0.619364E-03
      0.225000          0.582543E-03
      0.230000          0.545144E-03
      0.235000          0.507933E-03
      0.240000          0.471602E-03
      0.245000          0.436738E-03
      0.250000          0.403811E-03
      0.255000          0.373163E-03
      0.260000          0.345010E-03
      0.265000          0.319451E-03
      0.270000          0.296483E-03
      0.275000          0.276013E-03
      0.280000          0.257884E-03
      0.285000          0.241890E-03
      0.290000          0.227796E-03
      0.295000          0.215359E-03
      0.300000          0.204340E-03
      0.305000          0.194515E-03
      0.310000          0.185689E-03
      0.315000          0.177697E-03
      0.320000          0.170406E-03
      0.325000          0.163719E-03
      0.330000          0.157568E-03
      0.335000          0.151912E-03
      0.340000          0.146732E-03
      0.345000          0.142021E-03
      0.350000          0.137781E-03
      0.355000          0.134017E-03
      0.360000          0.130733E-03
      0.365000          0.127924E-03
      0.370000          0.125576E-03
      0.375000          0.123666E-03
      0.380000          0.122159E-03
      0.385000          0.121008E-03
      0.390000          0.120159E-03
      0.395000          0.119553E-03
      0.400000          0.119125E-03
      0.405000          0.118813E-03
      0.410000          0.118555E-03
      0.415000          0.118295E-03
      0.420000          0.117987E-03
      0.425000          0.117593E-03
      0.430000          0.117086E-03
      0.435000          0.116451E-03
      0.440000          0.115685E-03
      0.445000          0.114792E-03
      0.450000          0.113788E-03
      0.455000          0.112696E-03
      0.460000          0.111543E-03
      0.465000          0.110359E-03
      0.470000          0.109175E-03
      0.475000          0.108020E-03
      0.480000          0.106920E-03
      0.485000          0.105896E-03
      0.490000          0.104964E-03
      0.495000          0.104133E-03
      0.500000          0.103402E-03
