 I_abs(s)[cm^-1]/c[mg/ml]
       0.00000          0.135744E-01
      0.500000E-02      0.135182E-01
      0.100000E-01      0.133512E-01
      0.150000E-01      0.130772E-01
      0.200000E-01      0.127029E-01
      0.250000E-01      0.122371E-01
      0.300000E-01      0.116904E-01
      0.350000E-01      0.110754E-01
      0.400000E-01      0.104055E-01
      0.450000E-01      0.969492E-02
      0.500000E-01      0.895819E-02
      0.550000E-01      0.820953E-02
      0.600000E-01      0.746257E-02
      0.650000E-01      0.672991E-02
      0.700000E-01      0.602281E-02
      0.750000E-01      0.535092E-02
      0.800000E-01      0.472216E-02
      0.850000E-01      0.414255E-02
      0.900000E-01      0.361625E-02
      0.950000E-01      0.314555E-02
      0.100000          0.273103E-02
      0.105000          0.237174E-02
      0.110000          0.206534E-02
      0.115000          0.180841E-02
      0.120000          0.159669E-02
      0.125000          0.142531E-02
      0.130000          0.128906E-02
      0.135000          0.118264E-02
      0.140000          0.110083E-02
      0.145000          0.103868E-02
      0.150000          0.991637E-03
      0.155000          0.955665E-03
      0.160000          0.927278E-03
      0.165000          0.903583E-03
      0.170000          0.882270E-03
      0.175000          0.861586E-03
      0.180000          0.840282E-03
      0.185000          0.817556E-03
      0.190000          0.792977E-03
      0.195000          0.766413E-03
      0.200000          0.737958E-03
      0.205000          0.707865E-03
      0.210000          0.676487E-03
      0.215000          0.644227E-03
      0.220000          0.611499E-03
      0.225000          0.578699E-03
      0.230000          0.546185E-03
      0.235000          0.514268E-03
      0.240000          0.483205E-03
      0.245000          0.453205E-03
      0.250000          0.424431E-03
      0.255000          0.397006E-03
      0.260000          0.371022E-03
      0.265000          0.346548E-03
      0.270000          0.323634E-03
      0.275000          0.302315E-03
      0.280000          0.282615E-03
      0.285000          0.264548E-03
      0.290000          0.248114E-03
      0.295000          0.233305E-03
      0.300000          0.220093E-03
      0.305000          0.208437E-03
      0.310000          0.198277E-03
      0.315000          0.189534E-03
      0.320000          0.182112E-03
      0.325000          0.175897E-03
      0.330000          0.170761E-03
      0.335000          0.166564E-03
      0.340000          0.163159E-03
      0.345000          0.160398E-03
      0.350000          0.158133E-03
      0.355000          0.156223E-03
      0.360000          0.154540E-03
      0.365000          0.152969E-03
      0.370000          0.151411E-03
      0.375000          0.149789E-03
      0.380000          0.148045E-03
      0.385000          0.146142E-03
      0.390000          0.144062E-03
      0.395000          0.141805E-03
      0.400000          0.139386E-03
      0.405000          0.136835E-03
      0.410000          0.134190E-03
      0.415000          0.131498E-03
      0.420000          0.128808E-03
      0.425000          0.126171E-03
      0.430000          0.123635E-03
      0.435000          0.121246E-03
      0.440000          0.119041E-03
      0.445000          0.117054E-03
      0.450000          0.115306E-03
      0.455000          0.113812E-03
      0.460000          0.112576E-03
      0.465000          0.111595E-03
      0.470000          0.110856E-03
      0.475000          0.110342E-03
      0.480000          0.110025E-03
      0.485000          0.109877E-03
      0.490000          0.109862E-03
      0.495000          0.109946E-03
      0.500000          0.110090E-03
