 I_abs(s)[cm^-1]/c[mg/ml]
       0.00000          0.135820E-01
      0.500000E-02      0.135274E-01
      0.100000E-01      0.133647E-01
      0.150000E-01      0.130977E-01
      0.200000E-01      0.127326E-01
      0.250000E-01      0.122779E-01
      0.300000E-01      0.117438E-01
      0.350000E-01      0.111421E-01
      0.400000E-01      0.104856E-01
      0.450000E-01      0.978823E-02
      0.500000E-01      0.906379E-02
      0.550000E-01      0.832615E-02
      0.600000E-01      0.758861E-02
      0.650000E-01      0.686356E-02
      0.700000E-01      0.616215E-02
      0.750000E-01      0.549407E-02
      0.800000E-01      0.486735E-02
      0.850000E-01      0.428820E-02
      0.900000E-01      0.376105E-02
      0.950000E-01      0.328849E-02
      0.100000          0.287141E-02
      0.105000          0.250914E-02
      0.110000          0.219959E-02
      0.115000          0.193954E-02
      0.120000          0.172483E-02
      0.125000          0.155064E-02
      0.130000          0.141172E-02
      0.135000          0.130267E-02
      0.140000          0.121809E-02
      0.145000          0.115284E-02
      0.150000          0.110215E-02
      0.155000          0.106174E-02
      0.160000          0.102796E-02
      0.165000          0.997740E-03
      0.170000          0.968689E-03
      0.175000          0.939031E-03
      0.180000          0.907575E-03
      0.185000          0.873653E-03
      0.190000          0.837044E-03
      0.195000          0.797886E-03
      0.200000          0.756596E-03
      0.205000          0.713778E-03
      0.210000          0.670150E-03
      0.215000          0.626470E-03
      0.220000          0.583480E-03
      0.225000          0.541857E-03
      0.230000          0.502185E-03
      0.235000          0.464926E-03
      0.240000          0.430416E-03
      0.245000          0.398862E-03
      0.250000          0.370352E-03
      0.255000          0.344863E-03
      0.260000          0.322285E-03
      0.265000          0.302439E-03
      0.270000          0.285093E-03
      0.275000          0.269988E-03
      0.280000          0.256850E-03
      0.285000          0.245407E-03
      0.290000          0.235401E-03
      0.295000          0.226596E-03
      0.300000          0.218782E-03
      0.305000          0.211782E-03
      0.310000          0.205445E-03
      0.315000          0.199653E-03
      0.320000          0.194309E-03
      0.325000          0.189343E-03
      0.330000          0.184698E-03
      0.335000          0.180332E-03
      0.340000          0.176215E-03
      0.345000          0.172321E-03
      0.350000          0.168628E-03
      0.355000          0.165117E-03
      0.360000          0.161771E-03
      0.365000          0.158571E-03
      0.370000          0.155499E-03
      0.375000          0.152540E-03
      0.380000          0.149677E-03
      0.385000          0.146896E-03
      0.390000          0.144185E-03
      0.395000          0.141536E-03
      0.400000          0.138943E-03
      0.405000          0.136403E-03
      0.410000          0.133920E-03
      0.415000          0.131497E-03
      0.420000          0.129142E-03
      0.425000          0.126865E-03
      0.430000          0.124678E-03
      0.435000          0.122595E-03
      0.440000          0.120629E-03
      0.445000          0.118791E-03
      0.450000          0.117094E-03
      0.455000          0.115547E-03
      0.460000          0.114157E-03
      0.465000          0.112928E-03
      0.470000          0.111861E-03
      0.475000          0.110953E-03
      0.480000          0.110197E-03
      0.485000          0.109585E-03
      0.490000          0.109103E-03
      0.495000          0.108735E-03
      0.500000          0.108464E-03
