 I_abs(s)[cm^-1]/c[mg/ml]
       0.00000          0.136512E-01
      0.500000E-02      0.135950E-01
      0.100000E-01      0.134275E-01
      0.150000E-01      0.131527E-01
      0.200000E-01      0.127770E-01
      0.250000E-01      0.123092E-01
      0.300000E-01      0.117597E-01
      0.350000E-01      0.111409E-01
      0.400000E-01      0.104660E-01
      0.450000E-01      0.974930E-02
      0.500000E-01      0.900512E-02
      0.550000E-01      0.824777E-02
      0.600000E-01      0.749098E-02
      0.650000E-01      0.674754E-02
      0.700000E-01      0.602894E-02
      0.750000E-01      0.534518E-02
      0.800000E-01      0.470451E-02
      0.850000E-01      0.411333E-02
      0.900000E-01      0.357618E-02
      0.950000E-01      0.309572E-02
      0.100000          0.267285E-02
      0.105000          0.230684E-02
      0.110000          0.199556E-02
      0.115000          0.173566E-02
      0.120000          0.152286E-02
      0.125000          0.135220E-02
      0.130000          0.121828E-02
      0.135000          0.111555E-02
      0.140000          0.103846E-02
      0.145000          0.981721E-03
      0.150000          0.940427E-03
      0.155000          0.910180E-03
      0.160000          0.887176E-03
      0.165000          0.868248E-03
      0.170000          0.850874E-03
      0.175000          0.833161E-03
      0.180000          0.813794E-03
      0.185000          0.791981E-03
      0.190000          0.767371E-03
      0.195000          0.739970E-03
      0.200000          0.710057E-03
      0.205000          0.678105E-03
      0.210000          0.644697E-03
      0.215000          0.610471E-03
      0.220000          0.576056E-03
      0.225000          0.542037E-03
      0.230000          0.508923E-03
      0.235000          0.477131E-03
      0.240000          0.446976E-03
      0.245000          0.418677E-03
      0.250000          0.392361E-03
      0.255000          0.368077E-03
      0.260000          0.345813E-03
      0.265000          0.325508E-03
      0.270000          0.307073E-03
      0.275000          0.290396E-03
      0.280000          0.275363E-03
      0.285000          0.261855E-03
      0.290000          0.249763E-03
      0.295000          0.238984E-03
      0.300000          0.229421E-03
      0.305000          0.220984E-03
      0.310000          0.213588E-03
      0.315000          0.207143E-03
      0.320000          0.201561E-03
      0.325000          0.196744E-03
      0.330000          0.192592E-03
      0.335000          0.188996E-03
      0.340000          0.185841E-03
      0.345000          0.183012E-03
      0.350000          0.180394E-03
      0.355000          0.177876E-03
      0.360000          0.175357E-03
      0.365000          0.172750E-03
      0.370000          0.169983E-03
      0.375000          0.167007E-03
      0.380000          0.163793E-03
      0.385000          0.160334E-03
      0.390000          0.156648E-03
      0.395000          0.152771E-03
      0.400000          0.148758E-03
      0.405000          0.144676E-03
      0.410000          0.140605E-03
      0.415000          0.136625E-03
      0.420000          0.132820E-03
      0.425000          0.129267E-03
      0.430000          0.126034E-03
      0.435000          0.123177E-03
      0.440000          0.120736E-03
      0.445000          0.118736E-03
      0.450000          0.117180E-03
      0.455000          0.116058E-03
      0.460000          0.115342E-03
      0.465000          0.114987E-03
      0.470000          0.114941E-03
      0.475000          0.115141E-03
      0.480000          0.115517E-03
      0.485000          0.116001E-03
      0.490000          0.116523E-03
      0.495000          0.117019E-03
      0.500000          0.117433E-03
