 I_abs(s)[cm^-1]/c[mg/ml]
       0.00000          0.139219E-01
      0.500000E-02      0.138715E-01
      0.100000E-01      0.137213E-01
      0.150000E-01      0.134743E-01
      0.200000E-01      0.131358E-01
      0.250000E-01      0.127124E-01
      0.300000E-01      0.122128E-01
      0.350000E-01      0.116467E-01
      0.400000E-01      0.110250E-01
      0.450000E-01      0.103593E-01
      0.500000E-01      0.966144E-02
      0.550000E-01      0.894355E-02
      0.600000E-01      0.821740E-02
      0.650000E-01      0.749421E-02
      0.700000E-01      0.678439E-02
      0.750000E-01      0.609733E-02
      0.800000E-01      0.544118E-02
      0.850000E-01      0.482275E-02
      0.900000E-01      0.424744E-02
      0.950000E-01      0.371916E-02
      0.100000          0.324044E-02
      0.105000          0.281241E-02
      0.110000          0.243495E-02
      0.115000          0.210681E-02
      0.120000          0.182576E-02
      0.125000          0.158878E-02
      0.130000          0.139224E-02
      0.135000          0.123205E-02
      0.140000          0.110386E-02
      0.145000          0.100324E-02
      0.150000          0.925778E-03
      0.155000          0.867249E-03
      0.160000          0.823693E-03
      0.165000          0.791501E-03
      0.170000          0.767473E-03
      0.175000          0.748849E-03
      0.180000          0.733323E-03
      0.185000          0.719036E-03
      0.190000          0.704559E-03
      0.195000          0.688859E-03
      0.200000          0.671257E-03
      0.205000          0.651385E-03
      0.210000          0.629133E-03
      0.215000          0.604597E-03
      0.220000          0.578037E-03
      0.225000          0.549826E-03
      0.230000          0.520409E-03
      0.235000          0.490271E-03
      0.240000          0.459902E-03
      0.245000          0.429776E-03
      0.250000          0.400330E-03
      0.255000          0.371949E-03
      0.260000          0.344959E-03
      0.265000          0.319620E-03
      0.270000          0.296125E-03
      0.275000          0.274602E-03
      0.280000          0.255114E-03
      0.285000          0.237667E-03
      0.290000          0.222217E-03
      0.295000          0.208675E-03
      0.300000          0.196916E-03
      0.305000          0.186789E-03
      0.310000          0.178121E-03
      0.315000          0.170730E-03
      0.320000          0.164429E-03
      0.325000          0.159034E-03
      0.330000          0.154370E-03
      0.335000          0.150277E-03
      0.340000          0.146612E-03
      0.345000          0.143255E-03
      0.350000          0.140109E-03
      0.355000          0.137102E-03
      0.360000          0.134183E-03
      0.365000          0.131328E-03
      0.370000          0.128529E-03
      0.375000          0.125799E-03
      0.380000          0.123163E-03
      0.385000          0.120656E-03
      0.390000          0.118320E-03
      0.395000          0.116197E-03
      0.400000          0.114330E-03
      0.405000          0.112754E-03
      0.410000          0.111498E-03
      0.415000          0.110581E-03
      0.420000          0.110011E-03
      0.425000          0.109783E-03
      0.430000          0.109881E-03
      0.435000          0.110278E-03
      0.440000          0.110938E-03
      0.445000          0.111817E-03
      0.450000          0.112865E-03
      0.455000          0.114028E-03
      0.460000          0.115252E-03
      0.465000          0.116484E-03
      0.470000          0.117674E-03
      0.475000          0.118775E-03
      0.480000          0.119749E-03
      0.485000          0.120564E-03
      0.490000          0.121194E-03
      0.495000          0.121623E-03
      0.500000          0.121841E-03
