 I_abs(s)[cm^-1]/c[mg/ml]
       0.00000          0.136974E-01
      0.500000E-02      0.136412E-01
      0.100000E-01      0.134737E-01
      0.150000E-01      0.131990E-01
      0.200000E-01      0.128237E-01
      0.250000E-01      0.123563E-01
      0.300000E-01      0.118077E-01
      0.350000E-01      0.111901E-01
      0.400000E-01      0.105169E-01
      0.450000E-01      0.980231E-02
      0.500000E-01      0.906069E-02
      0.550000E-01      0.830622E-02
      0.600000E-01      0.755246E-02
      0.650000E-01      0.681198E-02
      0.700000E-01      0.609603E-02
      0.750000E-01      0.541429E-02
      0.800000E-01      0.477472E-02
      0.850000E-01      0.418345E-02
      0.900000E-01      0.364475E-02
      0.950000E-01      0.316108E-02
      0.100000          0.273322E-02
      0.105000          0.236041E-02
      0.110000          0.204056E-02
      0.115000          0.177049E-02
      0.120000          0.154618E-02
      0.125000          0.136301E-02
      0.130000          0.121599E-02
      0.135000          0.110004E-02
      0.140000          0.101009E-02
      0.145000          0.941346E-03
      0.150000          0.889355E-03
      0.155000          0.850127E-03
      0.160000          0.820187E-03
      0.165000          0.796607E-03
      0.170000          0.776997E-03
      0.175000          0.759489E-03
      0.180000          0.742685E-03
      0.185000          0.725607E-03
      0.190000          0.707628E-03
      0.195000          0.688407E-03
      0.200000          0.667827E-03
      0.205000          0.645929E-03
      0.210000          0.622862E-03
      0.215000          0.598841E-03
      0.220000          0.574108E-03
      0.225000          0.548907E-03
      0.230000          0.523471E-03
      0.235000          0.498008E-03
      0.240000          0.472701E-03
      0.245000          0.447706E-03
      0.250000          0.423159E-03
      0.255000          0.399177E-03
      0.260000          0.375869E-03
      0.265000          0.353335E-03
      0.270000          0.331676E-03
      0.275000          0.310991E-03
      0.280000          0.291376E-03
      0.285000          0.272930E-03
      0.290000          0.255743E-03
      0.295000          0.239898E-03
      0.300000          0.225465E-03
      0.305000          0.212497E-03
      0.310000          0.201026E-03
      0.315000          0.191059E-03
      0.320000          0.182580E-03
      0.325000          0.175543E-03
      0.330000          0.169878E-03
      0.335000          0.165492E-03
      0.340000          0.162269E-03
      0.345000          0.160076E-03
      0.350000          0.158767E-03
      0.355000          0.158188E-03
      0.360000          0.158183E-03
      0.365000          0.158597E-03
      0.370000          0.159281E-03
      0.375000          0.160095E-03
      0.380000          0.160917E-03
      0.385000          0.161637E-03
      0.390000          0.162165E-03
      0.395000          0.162429E-03
      0.400000          0.162378E-03
      0.405000          0.161978E-03
      0.410000          0.161213E-03
      0.415000          0.160084E-03
      0.420000          0.158604E-03
      0.425000          0.156800E-03
      0.430000          0.154707E-03
      0.435000          0.152367E-03
      0.440000          0.149827E-03
      0.445000          0.147135E-03
      0.450000          0.144341E-03
      0.455000          0.141492E-03
      0.460000          0.138632E-03
      0.465000          0.135804E-03
      0.470000          0.133040E-03
      0.475000          0.130373E-03
      0.480000          0.127824E-03
      0.485000          0.125412E-03
      0.490000          0.123150E-03
      0.495000          0.121042E-03
      0.500000          0.119089E-03
