 I_abs(s)[cm^-1]/c[mg/ml]
       0.00000          0.137979E-01
      0.500000E-02      0.137510E-01
      0.100000E-01      0.136115E-01
      0.150000E-01      0.133818E-01
      0.200000E-01      0.130662E-01
      0.250000E-01      0.126708E-01
      0.300000E-01      0.122026E-01
      0.350000E-01      0.116701E-01
      0.400000E-01      0.110828E-01
      0.450000E-01      0.104508E-01
      0.500000E-01      0.978468E-02
      0.550000E-01      0.909521E-02
      0.600000E-01      0.839312E-02
      0.650000E-01      0.768880E-02
      0.700000E-01      0.699207E-02
      0.750000E-01      0.631199E-02
      0.800000E-01      0.565669E-02
      0.850000E-01      0.503321E-02
      0.900000E-01      0.444742E-02
      0.950000E-01      0.390394E-02
      0.100000          0.340611E-02
      0.105000          0.295605E-02
      0.110000          0.255465E-02
      0.115000          0.220170E-02
      0.120000          0.189597E-02
      0.125000          0.163535E-02
      0.130000          0.141698E-02
      0.135000          0.123744E-02
      0.140000          0.109285E-02
      0.145000          0.979087E-03
      0.150000          0.891872E-03
      0.155000          0.826949E-03
      0.160000          0.780188E-03
      0.165000          0.747691E-03
      0.170000          0.725874E-03
      0.175000          0.711531E-03
      0.180000          0.701876E-03
      0.185000          0.694566E-03
      0.190000          0.687705E-03
      0.195000          0.679835E-03
      0.200000          0.669908E-03
      0.205000          0.657248E-03
      0.210000          0.641512E-03
      0.215000          0.622637E-03
      0.220000          0.600786E-03
      0.225000          0.576297E-03
      0.230000          0.549631E-03
      0.235000          0.521326E-03
      0.240000          0.491956E-03
      0.245000          0.462092E-03
      0.250000          0.432275E-03
      0.255000          0.402994E-03
      0.260000          0.374670E-03
      0.265000          0.347646E-03
      0.270000          0.322185E-03
      0.275000          0.298470E-03
      0.280000          0.276610E-03
      0.285000          0.256646E-03
      0.290000          0.238565E-03
      0.295000          0.222306E-03
      0.300000          0.207774E-03
      0.305000          0.194850E-03
      0.310000          0.183402E-03
      0.315000          0.173291E-03
      0.320000          0.164380E-03
      0.325000          0.156537E-03
      0.330000          0.149642E-03
      0.335000          0.143586E-03
      0.340000          0.138272E-03
      0.345000          0.133616E-03
      0.350000          0.129546E-03
      0.355000          0.125999E-03
      0.360000          0.122921E-03
      0.365000          0.120261E-03
      0.370000          0.117975E-03
      0.375000          0.116022E-03
      0.380000          0.114359E-03
      0.385000          0.112948E-03
      0.390000          0.111750E-03
      0.395000          0.110727E-03
      0.400000          0.109844E-03
      0.405000          0.109066E-03
      0.410000          0.108362E-03
      0.415000          0.107708E-03
      0.420000          0.107082E-03
      0.425000          0.106467E-03
      0.430000          0.105855E-03
      0.435000          0.105243E-03
      0.440000          0.104632E-03
      0.445000          0.104031E-03
      0.450000          0.103453E-03
      0.455000          0.102914E-03
      0.460000          0.102433E-03
      0.465000          0.102030E-03
      0.470000          0.101724E-03
      0.475000          0.101534E-03
      0.480000          0.101473E-03
      0.485000          0.101553E-03
      0.490000          0.101781E-03
      0.495000          0.102155E-03
      0.500000          0.102671E-03
