 I_abs(s)[cm^-1]/c[mg/ml]
       0.00000          0.137360E-01
      0.500000E-02      0.136823E-01
      0.100000E-01      0.135222E-01
      0.150000E-01      0.132597E-01
      0.200000E-01      0.129006E-01
      0.250000E-01      0.124532E-01
      0.300000E-01      0.119274E-01
      0.350000E-01      0.113348E-01
      0.400000E-01      0.106877E-01
      0.450000E-01      0.999953E-02
      0.500000E-01      0.928362E-02
      0.550000E-01      0.855326E-02
      0.600000E-01      0.782116E-02
      0.650000E-01      0.709914E-02
      0.700000E-01      0.639783E-02
      0.750000E-01      0.572644E-02
      0.800000E-01      0.509261E-02
      0.850000E-01      0.450233E-02
      0.900000E-01      0.395989E-02
      0.950000E-01      0.346796E-02
      0.100000          0.302767E-02
      0.105000          0.263875E-02
      0.110000          0.229973E-02
      0.115000          0.200811E-02
      0.120000          0.176059E-02
      0.125000          0.155332E-02
      0.130000          0.138204E-02
      0.135000          0.124233E-02
      0.140000          0.112976E-02
      0.145000          0.104002E-02
      0.150000          0.969077E-03
      0.155000          0.913193E-03
      0.160000          0.869045E-03
      0.165000          0.833723E-03
      0.170000          0.804751E-03
      0.175000          0.780071E-03
      0.180000          0.758026E-03
      0.185000          0.737317E-03
      0.190000          0.716972E-03
      0.195000          0.696295E-03
      0.200000          0.674829E-03
      0.205000          0.652306E-03
      0.210000          0.628619E-03
      0.215000          0.603780E-03
      0.220000          0.577895E-03
      0.225000          0.551135E-03
      0.230000          0.523722E-03
      0.235000          0.495907E-03
      0.240000          0.467957E-03
      0.245000          0.440145E-03
      0.250000          0.412738E-03
      0.255000          0.385993E-03
      0.260000          0.360146E-03
      0.265000          0.335410E-03
      0.270000          0.311968E-03
      0.275000          0.289972E-03
      0.280000          0.269537E-03
      0.285000          0.250744E-03
      0.290000          0.233640E-03
      0.295000          0.218235E-03
      0.300000          0.204509E-03
      0.305000          0.192414E-03
      0.310000          0.181877E-03
      0.315000          0.172807E-03
      0.320000          0.165095E-03
      0.325000          0.158624E-03
      0.330000          0.153271E-03
      0.335000          0.148909E-03
      0.340000          0.145414E-03
      0.345000          0.142665E-03
      0.350000          0.140546E-03
      0.355000          0.138948E-03
      0.360000          0.137771E-03
      0.365000          0.136922E-03
      0.370000          0.136316E-03
      0.375000          0.135875E-03
      0.380000          0.135531E-03
      0.385000          0.135223E-03
      0.390000          0.134899E-03
      0.395000          0.134512E-03
      0.400000          0.134028E-03
      0.405000          0.133418E-03
      0.410000          0.132663E-03
      0.415000          0.131754E-03
      0.420000          0.130690E-03
      0.425000          0.129479E-03
      0.430000          0.128136E-03
      0.435000          0.126685E-03
      0.440000          0.125154E-03
      0.445000          0.123577E-03
      0.450000          0.121988E-03
      0.455000          0.120423E-03
      0.460000          0.118916E-03
      0.465000          0.117500E-03
      0.470000          0.116201E-03
      0.475000          0.115040E-03
      0.480000          0.114031E-03
      0.485000          0.113180E-03
      0.490000          0.112485E-03
      0.495000          0.111940E-03
      0.500000          0.111527E-03
