 I_abs(s)[cm^-1]/c[mg/ml]
       0.00000          0.136589E-01
      0.500000E-02      0.136018E-01
      0.100000E-01      0.134318E-01
      0.150000E-01      0.131530E-01
      0.200000E-01      0.127720E-01
      0.250000E-01      0.122979E-01
      0.300000E-01      0.117416E-01
      0.350000E-01      0.111158E-01
      0.400000E-01      0.104343E-01
      0.450000E-01      0.971155E-02
      0.500000E-01      0.896247E-02
      0.550000E-01      0.820166E-02
      0.600000E-01      0.744310E-02
      0.650000E-01      0.669975E-02
      0.700000E-01      0.598324E-02
      0.750000E-01      0.530354E-02
      0.800000E-01      0.466884E-02
      0.850000E-01      0.408538E-02
      0.900000E-01      0.355748E-02
      0.950000E-01      0.308751E-02
      0.100000          0.267605E-02
      0.105000          0.232206E-02
      0.110000          0.202302E-02
      0.115000          0.177527E-02
      0.120000          0.157420E-02
      0.125000          0.141455E-02
      0.130000          0.129067E-02
      0.135000          0.119677E-02
      0.140000          0.112715E-02
      0.145000          0.107635E-02
      0.150000          0.103939E-02
      0.155000          0.101179E-02
      0.160000          0.989722E-03
      0.165000          0.970020E-03
      0.170000          0.950192E-03
      0.175000          0.928399E-03
      0.180000          0.903412E-03
      0.185000          0.874546E-03
      0.190000          0.841585E-03
      0.195000          0.804695E-03
      0.200000          0.764343E-03
      0.205000          0.721210E-03
      0.210000          0.676115E-03
      0.215000          0.629941E-03
      0.220000          0.583584E-03
      0.225000          0.537895E-03
      0.230000          0.493650E-03
      0.235000          0.451518E-03
      0.240000          0.412049E-03
      0.245000          0.375661E-03
      0.250000          0.342646E-03
      0.255000          0.313168E-03
      0.260000          0.287278E-03
      0.265000          0.264921E-03
      0.270000          0.245959E-03
      0.275000          0.230178E-03
      0.280000          0.217309E-03
      0.285000          0.207042E-03
      0.290000          0.199040E-03
      0.295000          0.192953E-03
      0.300000          0.188431E-03
      0.305000          0.185131E-03
      0.310000          0.182731E-03
      0.315000          0.180935E-03
      0.320000          0.179479E-03
      0.325000          0.178136E-03
      0.330000          0.176719E-03
      0.335000          0.175081E-03
      0.340000          0.173120E-03
      0.345000          0.170771E-03
      0.350000          0.168007E-03
      0.355000          0.164838E-03
      0.360000          0.161300E-03
      0.365000          0.157458E-03
      0.370000          0.153391E-03
      0.375000          0.149196E-03
      0.380000          0.144975E-03
      0.385000          0.140830E-03
      0.390000          0.136863E-03
      0.395000          0.133166E-03
      0.400000          0.129819E-03
      0.405000          0.126889E-03
      0.410000          0.124424E-03
      0.415000          0.122457E-03
      0.420000          0.121000E-03
      0.425000          0.120051E-03
      0.430000          0.119589E-03
      0.435000          0.119579E-03
      0.440000          0.119975E-03
      0.445000          0.120721E-03
      0.450000          0.121752E-03
      0.455000          0.123001E-03
      0.460000          0.124396E-03
      0.465000          0.125867E-03
      0.470000          0.127346E-03
      0.475000          0.128769E-03
      0.480000          0.130077E-03
      0.485000          0.131217E-03
      0.490000          0.132146E-03
      0.495000          0.132826E-03
      0.500000          0.133230E-03
