 I_abs(s)[cm^-1]/c[mg/ml]
       0.00000          0.135897E-01
      0.500000E-02      0.135371E-01
      0.100000E-01      0.133804E-01
      0.150000E-01      0.131232E-01
      0.200000E-01      0.127711E-01
      0.250000E-01      0.123318E-01
      0.300000E-01      0.118150E-01
      0.350000E-01      0.112314E-01
      0.400000E-01      0.105932E-01
      0.450000E-01      0.991303E-02
      0.500000E-01      0.920410E-02
      0.550000E-01      0.847941E-02
      0.600000E-01      0.775161E-02
      0.650000E-01      0.703254E-02
      0.700000E-01      0.633305E-02
      0.750000E-01      0.566263E-02
      0.800000E-01      0.502935E-02
      0.850000E-01      0.443964E-02
      0.900000E-01      0.389827E-02
      0.950000E-01      0.340837E-02
      0.100000          0.297147E-02
      0.105000          0.258759E-02
      0.110000          0.225544E-02
      0.115000          0.197256E-02
      0.120000          0.173556E-02
      0.125000          0.154033E-02
      0.130000          0.138227E-02
      0.135000          0.125648E-02
      0.140000          0.115799E-02
      0.145000          0.108194E-02
      0.150000          0.102369E-02
      0.155000          0.979009E-03
      0.160000          0.944100E-03
      0.165000          0.915702E-03
      0.170000          0.891097E-03
      0.175000          0.868122E-03
      0.180000          0.845140E-03
      0.185000          0.821003E-03
      0.190000          0.794995E-03
      0.195000          0.766772E-03
      0.200000          0.736288E-03
      0.205000          0.703727E-03
      0.210000          0.669442E-03
      0.215000          0.633887E-03
      0.220000          0.597570E-03
      0.225000          0.561009E-03
      0.230000          0.524697E-03
      0.235000          0.489083E-03
      0.240000          0.454551E-03
      0.245000          0.421419E-03
      0.250000          0.389933E-03
      0.255000          0.360275E-03
      0.260000          0.332570E-03
      0.265000          0.306894E-03
      0.270000          0.283282E-03
      0.275000          0.261741E-03
      0.280000          0.242252E-03
      0.285000          0.224783E-03
      0.290000          0.209287E-03
      0.295000          0.195706E-03
      0.300000          0.183971E-03
      0.305000          0.174005E-03
      0.310000          0.165715E-03
      0.315000          0.158996E-03
      0.320000          0.153727E-03
      0.325000          0.149772E-03
      0.330000          0.146978E-03
      0.335000          0.145180E-03
      0.340000          0.144201E-03
      0.345000          0.143858E-03
      0.350000          0.143965E-03
      0.355000          0.144341E-03
      0.360000          0.144811E-03
      0.365000          0.145219E-03
      0.370000          0.145426E-03
      0.375000          0.145318E-03
      0.380000          0.144809E-03
      0.385000          0.143843E-03
      0.390000          0.142394E-03
      0.395000          0.140466E-03
      0.400000          0.138088E-03
      0.405000          0.135316E-03
      0.410000          0.132225E-03
      0.415000          0.128901E-03
      0.420000          0.125444E-03
      0.425000          0.121955E-03
      0.430000          0.118534E-03
      0.435000          0.115274E-03
      0.440000          0.112258E-03
      0.445000          0.109553E-03
      0.450000          0.107212E-03
      0.455000          0.105270E-03
      0.460000          0.103742E-03
      0.465000          0.102627E-03
      0.470000          0.101910E-03
      0.475000          0.101558E-03
      0.480000          0.101530E-03
      0.485000          0.101776E-03
      0.490000          0.102240E-03
      0.495000          0.102864E-03
      0.500000          0.103589E-03
