 I_abs(s)[cm^-1]/c[mg/ml]
       0.00000          0.134213E-01
      0.500000E-02      0.133670E-01
      0.100000E-01      0.132054E-01
      0.150000E-01      0.129402E-01
      0.200000E-01      0.125775E-01
      0.250000E-01      0.121253E-01
      0.300000E-01      0.115938E-01
      0.350000E-01      0.109945E-01
      0.400000E-01      0.103402E-01
      0.450000E-01      0.964436E-02
      0.500000E-01      0.892084E-02
      0.550000E-01      0.818343E-02
      0.600000E-01      0.744545E-02
      0.650000E-01      0.671940E-02
      0.700000E-01      0.601664E-02
      0.750000E-01      0.534710E-02
      0.800000E-01      0.471912E-02
      0.850000E-01      0.413928E-02
      0.900000E-01      0.361234E-02
      0.950000E-01      0.314127E-02
      0.100000          0.272725E-02
      0.105000          0.236985E-02
      0.110000          0.206717E-02
      0.115000          0.181605E-02
      0.120000          0.161229E-02
      0.125000          0.145093E-02
      0.130000          0.132648E-02
      0.135000          0.123318E-02
      0.140000          0.116524E-02
      0.145000          0.111700E-02
      0.150000          0.108320E-02
      0.155000          0.105904E-02
      0.160000          0.104034E-02
      0.165000          0.102359E-02
      0.170000          0.100598E-02
      0.175000          0.985423E-03
      0.180000          0.960522E-03
      0.185000          0.930492E-03
      0.190000          0.895110E-03
      0.195000          0.854618E-03
      0.200000          0.809633E-03
      0.205000          0.761041E-03
      0.210000          0.709911E-03
      0.215000          0.657399E-03
      0.220000          0.604671E-03
      0.225000          0.552839E-03
      0.230000          0.502902E-03
      0.235000          0.455715E-03
      0.240000          0.411957E-03
      0.245000          0.372125E-03
      0.250000          0.336531E-03
      0.255000          0.305314E-03
      0.260000          0.278455E-03
      0.265000          0.255800E-03
      0.270000          0.237091E-03
      0.275000          0.221984E-03
      0.280000          0.210082E-03
      0.285000          0.200961E-03
      0.290000          0.194185E-03
      0.295000          0.189330E-03
      0.300000          0.185997E-03
      0.305000          0.183819E-03
      0.310000          0.182472E-03
      0.315000          0.181674E-03
      0.320000          0.181190E-03
      0.325000          0.180823E-03
      0.330000          0.180419E-03
      0.335000          0.179858E-03
      0.340000          0.179048E-03
      0.345000          0.177926E-03
      0.350000          0.176449E-03
      0.355000          0.174593E-03
      0.360000          0.172351E-03
      0.365000          0.169727E-03
      0.370000          0.166740E-03
      0.375000          0.163417E-03
      0.380000          0.159798E-03
      0.385000          0.155930E-03
      0.390000          0.151871E-03
      0.395000          0.147685E-03
      0.400000          0.143442E-03
      0.405000          0.139215E-03
      0.410000          0.135081E-03
      0.415000          0.131115E-03
      0.420000          0.127389E-03
      0.425000          0.123968E-03
      0.430000          0.120909E-03
      0.435000          0.118258E-03
      0.440000          0.116048E-03
      0.445000          0.114294E-03
      0.450000          0.113000E-03
      0.455000          0.112150E-03
      0.460000          0.111716E-03
      0.465000          0.111653E-03
      0.470000          0.111905E-03
      0.475000          0.112405E-03
      0.480000          0.113081E-03
      0.485000          0.113854E-03
      0.490000          0.114647E-03
      0.495000          0.115384E-03
      0.500000          0.115994E-03
