 I_abs(s)[cm^-1]/c[mg/ml]
       0.00000          0.134519E-01
      0.500000E-02      0.133958E-01
      0.100000E-01      0.132290E-01
      0.150000E-01      0.129555E-01
      0.200000E-01      0.125818E-01
      0.250000E-01      0.121165E-01
      0.300000E-01      0.115705E-01
      0.350000E-01      0.109561E-01
      0.400000E-01      0.102868E-01
      0.450000E-01      0.957683E-02
      0.500000E-01      0.884068E-02
      0.550000E-01      0.809268E-02
      0.600000E-01      0.734653E-02
      0.650000E-01      0.661495E-02
      0.700000E-01      0.590935E-02
      0.750000E-01      0.523954E-02
      0.800000E-01      0.461357E-02
      0.850000E-01      0.403762E-02
      0.900000E-01      0.351594E-02
      0.950000E-01      0.305091E-02
      0.100000          0.264315E-02
      0.105000          0.229166E-02
      0.110000          0.199403E-02
      0.115000          0.174670E-02
      0.120000          0.154519E-02
      0.125000          0.138441E-02
      0.130000          0.125885E-02
      0.135000          0.116291E-02
      0.140000          0.109105E-02
      0.145000          0.103802E-02
      0.150000          0.999007E-03
      0.155000          0.969726E-03
      0.160000          0.946517E-03
      0.165000          0.926370E-03
      0.170000          0.906931E-03
      0.175000          0.886471E-03
      0.180000          0.863841E-03
      0.185000          0.838395E-03
      0.190000          0.809916E-03
      0.195000          0.778523E-03
      0.200000          0.744591E-03
      0.205000          0.708665E-03
      0.210000          0.671386E-03
      0.215000          0.633425E-03
      0.220000          0.595436E-03
      0.225000          0.558016E-03
      0.230000          0.521675E-03
      0.235000          0.486827E-03
      0.240000          0.453780E-03
      0.245000          0.422745E-03
      0.250000          0.393841E-03
      0.255000          0.367113E-03
      0.260000          0.342544E-03
      0.265000          0.320073E-03
      0.270000          0.299612E-03
      0.275000          0.281053E-03
      0.280000          0.264287E-03
      0.285000          0.249203E-03
      0.290000          0.235699E-03
      0.295000          0.223678E-03
      0.300000          0.213053E-03
      0.305000          0.203741E-03
      0.310000          0.195664E-03
      0.315000          0.188742E-03
      0.320000          0.182891E-03
      0.325000          0.178023E-03
      0.330000          0.174043E-03
      0.335000          0.170849E-03
      0.340000          0.168331E-03
      0.345000          0.166378E-03
      0.350000          0.164875E-03
      0.355000          0.163709E-03
      0.360000          0.162775E-03
      0.365000          0.161972E-03
      0.370000          0.161216E-03
      0.375000          0.160432E-03
      0.380000          0.159564E-03
      0.385000          0.158572E-03
      0.390000          0.157430E-03
      0.395000          0.156130E-03
      0.400000          0.154675E-03
      0.405000          0.153079E-03
      0.410000          0.151366E-03
      0.415000          0.149563E-03
      0.420000          0.147700E-03
      0.425000          0.145805E-03
      0.430000          0.143906E-03
      0.435000          0.142024E-03
      0.440000          0.140173E-03
      0.445000          0.138365E-03
      0.450000          0.136600E-03
      0.455000          0.134875E-03
      0.460000          0.133183E-03
      0.465000          0.131512E-03
      0.470000          0.129849E-03
      0.475000          0.128180E-03
      0.480000          0.126493E-03
      0.485000          0.124780E-03
      0.490000          0.123036E-03
      0.495000          0.121261E-03
      0.500000          0.119460E-03
