 I_abs(s)[cm^-1]/c[mg/ml]
       0.00000          0.134901E-01
      0.500000E-02      0.134347E-01
      0.100000E-01      0.132698E-01
      0.150000E-01      0.129993E-01
      0.200000E-01      0.126294E-01
      0.250000E-01      0.121688E-01
      0.300000E-01      0.116277E-01
      0.350000E-01      0.110182E-01
      0.400000E-01      0.103534E-01
      0.450000E-01      0.964727E-02
      0.500000E-01      0.891402E-02
      0.550000E-01      0.816772E-02
      0.600000E-01      0.742193E-02
      0.650000E-01      0.668927E-02
      0.700000E-01      0.598115E-02
      0.750000E-01      0.530746E-02
      0.800000E-01      0.467641E-02
      0.850000E-01      0.409439E-02
      0.900000E-01      0.356592E-02
      0.950000E-01      0.309369E-02
      0.100000          0.267861E-02
      0.105000          0.231998E-02
      0.110000          0.201568E-02
      0.115000          0.176238E-02
      0.120000          0.155578E-02
      0.125000          0.139090E-02
      0.130000          0.126230E-02
      0.135000          0.116435E-02
      0.140000          0.109144E-02
      0.145000          0.103820E-02
      0.150000          0.999625E-03
      0.155000          0.971245E-03
      0.160000          0.949178E-03
      0.165000          0.930199E-03
      0.170000          0.911752E-03
      0.175000          0.891935E-03
      0.180000          0.869458E-03
      0.185000          0.843581E-03
      0.190000          0.814039E-03
      0.195000          0.780952E-03
      0.200000          0.744742E-03
      0.205000          0.706038E-03
      0.210000          0.665602E-03
      0.215000          0.624250E-03
      0.220000          0.582791E-03
      0.225000          0.541983E-03
      0.230000          0.502491E-03
      0.235000          0.464866E-03
      0.240000          0.429533E-03
      0.245000          0.396790E-03
      0.250000          0.366812E-03
      0.255000          0.339666E-03
      0.260000          0.315325E-03
      0.265000          0.293687E-03
      0.270000          0.274599E-03
      0.275000          0.257866E-03
      0.280000          0.243278E-03
      0.285000          0.230614E-03
      0.290000          0.219662E-03
      0.295000          0.210219E-03
      0.300000          0.202099E-03
      0.305000          0.195137E-03
      0.310000          0.189185E-03
      0.315000          0.184115E-03
      0.320000          0.179814E-03
      0.325000          0.176179E-03
      0.330000          0.173121E-03
      0.335000          0.170556E-03
      0.340000          0.168407E-03
      0.345000          0.166598E-03
      0.350000          0.165059E-03
      0.355000          0.163723E-03
      0.360000          0.162526E-03
      0.365000          0.161409E-03
      0.370000          0.160318E-03
      0.375000          0.159205E-03
      0.380000          0.158032E-03
      0.385000          0.156766E-03
      0.390000          0.155385E-03
      0.395000          0.153873E-03
      0.400000          0.152223E-03
      0.405000          0.150436E-03
      0.410000          0.148517E-03
      0.415000          0.146480E-03
      0.420000          0.144340E-03
      0.425000          0.142116E-03
      0.430000          0.139829E-03
      0.435000          0.137502E-03
      0.440000          0.135156E-03
      0.445000          0.132812E-03
      0.450000          0.130493E-03
      0.455000          0.128216E-03
      0.460000          0.126000E-03
      0.465000          0.123860E-03
      0.470000          0.121812E-03
      0.475000          0.119867E-03
      0.480000          0.118036E-03
      0.485000          0.116328E-03
      0.490000          0.114749E-03
      0.495000          0.113304E-03
      0.500000          0.111995E-03
