 I_abs(s)[cm^-1]/c[mg/ml]
       0.00000          0.136281E-01
      0.500000E-02      0.135720E-01
      0.100000E-01      0.134049E-01
      0.150000E-01      0.131309E-01
      0.200000E-01      0.127563E-01
      0.250000E-01      0.122898E-01
      0.300000E-01      0.117422E-01
      0.350000E-01      0.111256E-01
      0.400000E-01      0.104535E-01
      0.450000E-01      0.973991E-02
      0.500000E-01      0.899938E-02
      0.550000E-01      0.824612E-02
      0.600000E-01      0.749381E-02
      0.650000E-01      0.675513E-02
      0.700000E-01      0.604150E-02
      0.750000E-01      0.536279E-02
      0.800000E-01      0.472714E-02
      0.850000E-01      0.414081E-02
      0.900000E-01      0.360822E-02
      0.950000E-01      0.313191E-02
      0.100000          0.271269E-02
      0.105000          0.234975E-02
      0.110000          0.204089E-02
      0.115000          0.178277E-02
      0.120000          0.157108E-02
      0.125000          0.140091E-02
      0.130000          0.126690E-02
      0.135000          0.116357E-02
      0.140000          0.108545E-02
      0.145000          0.102735E-02
      0.150000          0.984437E-03
      0.155000          0.952415E-03
      0.160000          0.927555E-03
      0.165000          0.906755E-03
      0.170000          0.887550E-03
      0.175000          0.868083E-03
      0.180000          0.847067E-03
      0.185000          0.823721E-03
      0.190000          0.797694E-03
      0.195000          0.768985E-03
      0.200000          0.737862E-03
      0.205000          0.704777E-03
      0.210000          0.670300E-03
      0.215000          0.635049E-03
      0.220000          0.599638E-03
      0.225000          0.564637E-03
      0.230000          0.530545E-03
      0.235000          0.497764E-03
      0.240000          0.466600E-03
      0.245000          0.437257E-03
      0.250000          0.409846E-03
      0.255000          0.384398E-03
      0.260000          0.360881E-03
      0.265000          0.339211E-03
      0.270000          0.319273E-03
      0.275000          0.300934E-03
      0.280000          0.284058E-03
      0.285000          0.268515E-03
      0.290000          0.254187E-03
      0.295000          0.240975E-03
      0.300000          0.228800E-03
      0.305000          0.217601E-03
      0.310000          0.207334E-03
      0.315000          0.197967E-03
      0.320000          0.189475E-03
      0.325000          0.181837E-03
      0.330000          0.175030E-03
      0.335000          0.169025E-03
      0.340000          0.163786E-03
      0.345000          0.159266E-03
      0.350000          0.155405E-03
      0.355000          0.152136E-03
      0.360000          0.149382E-03
      0.365000          0.147061E-03
      0.370000          0.145085E-03
      0.375000          0.143371E-03
      0.380000          0.141838E-03
      0.385000          0.140412E-03
      0.390000          0.139032E-03
      0.395000          0.137648E-03
      0.400000          0.136226E-03
      0.405000          0.134747E-03
      0.410000          0.133208E-03
      0.415000          0.131619E-03
      0.420000          0.130004E-03
      0.425000          0.128396E-03
      0.430000          0.126835E-03
      0.435000          0.125364E-03
      0.440000          0.124029E-03
      0.445000          0.122869E-03
      0.450000          0.121919E-03
      0.455000          0.121205E-03
      0.460000          0.120742E-03
      0.465000          0.120534E-03
      0.470000          0.120571E-03
      0.475000          0.120830E-03
      0.480000          0.121279E-03
      0.485000          0.121874E-03
      0.490000          0.122563E-03
      0.495000          0.123290E-03
      0.500000          0.123996E-03
