 I_abs(s)[cm^-1]/c[mg/ml]
       0.00000          0.137129E-01
      0.500000E-02      0.136598E-01
      0.100000E-01      0.135016E-01
      0.150000E-01      0.132420E-01
      0.200000E-01      0.128866E-01
      0.250000E-01      0.124432E-01
      0.300000E-01      0.119213E-01
      0.350000E-01      0.113319E-01
      0.400000E-01      0.106872E-01
      0.450000E-01      0.999985E-02
      0.500000E-01      0.928315E-02
      0.550000E-01      0.855022E-02
      0.600000E-01      0.781377E-02
      0.650000E-01      0.708578E-02
      0.700000E-01      0.637718E-02
      0.750000E-01      0.569761E-02
      0.800000E-01      0.505524E-02
      0.850000E-01      0.445663E-02
      0.900000E-01      0.390668E-02
      0.950000E-01      0.340865E-02
      0.100000          0.296416E-02
      0.105000          0.257335E-02
      0.110000          0.223503E-02
      0.115000          0.194680E-02
      0.120000          0.170535E-02
      0.125000          0.150658E-02
      0.130000          0.134590E-02
      0.135000          0.121841E-02
      0.140000          0.111909E-02
      0.145000          0.104299E-02
      0.150000          0.985425E-03
      0.155000          0.942018E-03
      0.160000          0.908866E-03
      0.165000          0.882568E-03
      0.170000          0.860271E-03
      0.175000          0.839675E-03
      0.180000          0.819015E-03
      0.185000          0.797031E-03
      0.190000          0.772912E-03
      0.195000          0.746240E-03
      0.200000          0.716923E-03
      0.205000          0.685126E-03
      0.210000          0.651208E-03
      0.215000          0.615656E-03
      0.220000          0.579031E-03
      0.225000          0.541923E-03
      0.230000          0.504912E-03
      0.235000          0.468538E-03
      0.240000          0.433280E-03
      0.245000          0.399543E-03
      0.250000          0.367656E-03
      0.255000          0.337865E-03
      0.260000          0.310342E-03
      0.265000          0.285189E-03
      0.270000          0.262448E-03
      0.275000          0.242108E-03
      0.280000          0.224116E-03
      0.285000          0.208388E-03
      0.290000          0.194810E-03
      0.295000          0.183250E-03
      0.300000          0.173562E-03
      0.305000          0.165590E-03
      0.310000          0.159168E-03
      0.315000          0.154130E-03
      0.320000          0.150302E-03
      0.325000          0.147514E-03
      0.330000          0.145596E-03
      0.335000          0.144381E-03
      0.340000          0.143707E-03
      0.345000          0.143423E-03
      0.350000          0.143386E-03
      0.355000          0.143467E-03
      0.360000          0.143555E-03
      0.365000          0.143553E-03
      0.370000          0.143388E-03
      0.375000          0.143004E-03
      0.380000          0.142367E-03
      0.385000          0.141465E-03
      0.390000          0.140302E-03
      0.395000          0.138903E-03
      0.400000          0.137304E-03
      0.405000          0.135555E-03
      0.410000          0.133712E-03
      0.415000          0.131837E-03
      0.420000          0.129989E-03
      0.425000          0.128228E-03
      0.430000          0.126604E-03
      0.435000          0.125159E-03
      0.440000          0.123924E-03
      0.445000          0.122917E-03
      0.450000          0.122143E-03
      0.455000          0.121594E-03
      0.460000          0.121249E-03
      0.465000          0.121078E-03
      0.470000          0.121041E-03
      0.475000          0.121093E-03
      0.480000          0.121184E-03
      0.485000          0.121264E-03
      0.490000          0.121285E-03
      0.495000          0.121204E-03
      0.500000          0.120982E-03
