 I_abs(s)[cm^-1]/c[mg/ml]
       0.00000          0.138133E-01
      0.500000E-02      0.137666E-01
      0.100000E-01      0.136275E-01
      0.150000E-01      0.133984E-01
      0.200000E-01      0.130837E-01
      0.250000E-01      0.126893E-01
      0.300000E-01      0.122223E-01
      0.350000E-01      0.116912E-01
      0.400000E-01      0.111053E-01
      0.450000E-01      0.104748E-01
      0.500000E-01      0.981007E-02
      0.550000E-01      0.912200E-02
      0.600000E-01      0.842121E-02
      0.650000E-01      0.771806E-02
      0.700000E-01      0.702235E-02
      0.750000E-01      0.634312E-02
      0.800000E-01      0.568849E-02
      0.850000E-01      0.506550E-02
      0.900000E-01      0.448004E-02
      0.950000E-01      0.393673E-02
      0.100000          0.343897E-02
      0.105000          0.298890E-02
      0.110000          0.258748E-02
      0.115000          0.223453E-02
      0.120000          0.192888E-02
      0.125000          0.166847E-02
      0.130000          0.145050E-02
      0.135000          0.127158E-02
      0.140000          0.112787E-02
      0.145000          0.101525E-02
      0.150000          0.929446E-03
      0.155000          0.866197E-03
      0.160000          0.821336E-03
      0.165000          0.790918E-03
      0.170000          0.771295E-03
      0.175000          0.759186E-03
      0.180000          0.751717E-03
      0.185000          0.746451E-03
      0.190000          0.741396E-03
      0.195000          0.734996E-03
      0.200000          0.726112E-03
      0.205000          0.713991E-03
      0.210000          0.698222E-03
      0.215000          0.678692E-03
      0.220000          0.655537E-03
      0.225000          0.629087E-03
      0.230000          0.599823E-03
      0.235000          0.568321E-03
      0.240000          0.535218E-03
      0.245000          0.501166E-03
      0.250000          0.466806E-03
      0.255000          0.432737E-03
      0.260000          0.399500E-03
      0.265000          0.367563E-03
      0.270000          0.337310E-03
      0.275000          0.309041E-03
      0.280000          0.282971E-03
      0.285000          0.259232E-03
      0.290000          0.237884E-03
      0.295000          0.218918E-03
      0.300000          0.202272E-03
      0.305000          0.187833E-03
      0.310000          0.175456E-03
      0.315000          0.164967E-03
      0.320000          0.156176E-03
      0.325000          0.148881E-03
      0.330000          0.142880E-03
      0.335000          0.137973E-03
      0.340000          0.133970E-03
      0.345000          0.130691E-03
      0.350000          0.127972E-03
      0.355000          0.125664E-03
      0.360000          0.123637E-03
      0.365000          0.121780E-03
      0.370000          0.119999E-03
      0.375000          0.118219E-03
      0.380000          0.116383E-03
      0.385000          0.114450E-03
      0.390000          0.112396E-03
      0.395000          0.110211E-03
      0.400000          0.107898E-03
      0.405000          0.105472E-03
      0.410000          0.102958E-03
      0.415000          0.100388E-03
      0.420000          0.978047E-04
      0.425000          0.952509E-04
      0.430000          0.927746E-04
      0.435000          0.904237E-04
      0.440000          0.882449E-04
      0.445000          0.862820E-04
      0.450000          0.845737E-04
      0.455000          0.831523E-04
      0.460000          0.820423E-04
      0.465000          0.812594E-04
      0.470000          0.808097E-04
      0.475000          0.806894E-04
      0.480000          0.808849E-04
      0.485000          0.813729E-04
      0.490000          0.821215E-04
      0.495000          0.830910E-04
      0.500000          0.842355E-04
