 I_abs(s)[cm^-1]/c[mg/ml]
       0.00000          0.134289E-01
      0.500000E-02      0.133736E-01
      0.100000E-01      0.132089E-01
      0.150000E-01      0.129388E-01
      0.200000E-01      0.125695E-01
      0.250000E-01      0.121097E-01
      0.300000E-01      0.115698E-01
      0.350000E-01      0.109619E-01
      0.400000E-01      0.102993E-01
      0.450000E-01      0.959593E-02
      0.500000E-01      0.886604E-02
      0.550000E-01      0.812380E-02
      0.600000E-01      0.738275E-02
      0.650000E-01      0.665555E-02
      0.700000E-01      0.595355E-02
      0.750000E-01      0.528659E-02
      0.800000E-01      0.466279E-02
      0.850000E-01      0.408844E-02
      0.900000E-01      0.356793E-02
      0.950000E-01      0.310379E-02
      0.100000          0.269678E-02
      0.105000          0.234603E-02
      0.110000          0.204927E-02
      0.115000          0.180300E-02
      0.120000          0.160279E-02
      0.125000          0.144352E-02
      0.130000          0.131967E-02
      0.135000          0.122554E-02
      0.140000          0.115547E-02
      0.145000          0.110408E-02
      0.150000          0.106638E-02
      0.155000          0.103795E-02
      0.160000          0.101499E-02
      0.165000          0.994353E-03
      0.170000          0.973604E-03
      0.175000          0.950963E-03
      0.180000          0.925270E-03
      0.185000          0.895914E-03
      0.190000          0.862756E-03
      0.195000          0.826033E-03
      0.200000          0.786268E-03
      0.205000          0.744178E-03
      0.210000          0.700589E-03
      0.215000          0.656362E-03
      0.220000          0.612335E-03
      0.225000          0.569268E-03
      0.230000          0.527815E-03
      0.235000          0.488500E-03
      0.240000          0.451710E-03
      0.245000          0.417696E-03
      0.250000          0.386581E-03
      0.255000          0.358382E-03
      0.260000          0.333024E-03
      0.265000          0.310365E-03
      0.270000          0.290215E-03
      0.275000          0.272360E-03
      0.280000          0.256574E-03
      0.285000          0.242639E-03
      0.290000          0.230347E-03
      0.295000          0.219514E-03
      0.300000          0.209976E-03
      0.305000          0.201593E-03
      0.310000          0.194245E-03
      0.315000          0.187828E-03
      0.320000          0.182246E-03
      0.325000          0.177414E-03
      0.330000          0.173245E-03
      0.335000          0.169653E-03
      0.340000          0.166546E-03
      0.345000          0.163831E-03
      0.350000          0.161409E-03
      0.355000          0.159181E-03
      0.360000          0.157050E-03
      0.365000          0.154924E-03
      0.370000          0.152721E-03
      0.375000          0.150372E-03
      0.380000          0.147822E-03
      0.385000          0.145040E-03
      0.390000          0.142010E-03
      0.395000          0.138742E-03
      0.400000          0.135263E-03
      0.405000          0.131620E-03
      0.410000          0.127875E-03
      0.415000          0.124103E-03
      0.420000          0.120385E-03
      0.425000          0.116806E-03
      0.430000          0.113451E-03
      0.435000          0.110395E-03
      0.440000          0.107707E-03
      0.445000          0.105439E-03
      0.450000          0.103630E-03
      0.455000          0.102299E-03
      0.460000          0.101448E-03
      0.465000          0.101059E-03
      0.470000          0.101099E-03
      0.475000          0.101519E-03
      0.480000          0.102257E-03
      0.485000          0.103242E-03
      0.490000          0.104396E-03
      0.495000          0.105639E-03
      0.500000          0.106893E-03
