 I_abs(s)[cm^-1]/c[mg/ml]
       0.00000          0.136589E-01
      0.500000E-02      0.136024E-01
      0.100000E-01      0.134343E-01
      0.150000E-01      0.131588E-01
      0.200000E-01      0.127826E-01
      0.250000E-01      0.123150E-01
      0.300000E-01      0.117671E-01
      0.350000E-01      0.111517E-01
      0.400000E-01      0.104827E-01
      0.450000E-01      0.977477E-02
      0.500000E-01      0.904254E-02
      0.550000E-01      0.830048E-02
      0.600000E-01      0.756221E-02
      0.650000E-01      0.684024E-02
      0.700000E-01      0.614557E-02
      0.750000E-01      0.548750E-02
      0.800000E-01      0.487343E-02
      0.850000E-01      0.430881E-02
      0.900000E-01      0.379712E-02
      0.950000E-01      0.333998E-02
      0.100000          0.293730E-02
      0.105000          0.258746E-02
      0.110000          0.228758E-02
      0.115000          0.203376E-02
      0.120000          0.182139E-02
      0.125000          0.164540E-02
      0.130000          0.150055E-02
      0.135000          0.138162E-02
      0.140000          0.128364E-02
      0.145000          0.120204E-02
      0.150000          0.113278E-02
      0.155000          0.107238E-02
      0.160000          0.101803E-02
      0.165000          0.967515E-03
      0.170000          0.919238E-03
      0.175000          0.872130E-03
      0.180000          0.825593E-03
      0.185000          0.779411E-03
      0.190000          0.733663E-03
      0.195000          0.688637E-03
      0.200000          0.644746E-03
      0.205000          0.602459E-03
      0.210000          0.562237E-03
      0.215000          0.524491E-03
      0.220000          0.489547E-03
      0.225000          0.457626E-03
      0.230000          0.428833E-03
      0.235000          0.403166E-03
      0.240000          0.380519E-03
      0.245000          0.360700E-03
      0.250000          0.343452E-03
      0.255000          0.328469E-03
      0.260000          0.315423E-03
      0.265000          0.303979E-03
      0.270000          0.293815E-03
      0.275000          0.284631E-03
      0.280000          0.276165E-03
      0.285000          0.268194E-03
      0.290000          0.260541E-03
      0.295000          0.253075E-03
      0.300000          0.245705E-03
      0.305000          0.238381E-03
      0.310000          0.231082E-03
      0.315000          0.223818E-03
      0.320000          0.216613E-03
      0.325000          0.209507E-03
      0.330000          0.202548E-03
      0.335000          0.195782E-03
      0.340000          0.189256E-03
      0.345000          0.183011E-03
      0.350000          0.177080E-03
      0.355000          0.171489E-03
      0.360000          0.166255E-03
      0.365000          0.161386E-03
      0.370000          0.156885E-03
      0.375000          0.152749E-03
      0.380000          0.148972E-03
      0.385000          0.145545E-03
      0.390000          0.142458E-03
      0.395000          0.139700E-03
      0.400000          0.137261E-03
      0.405000          0.135130E-03
      0.410000          0.133297E-03
      0.415000          0.131751E-03
      0.420000          0.130478E-03
      0.425000          0.129463E-03
      0.430000          0.128687E-03
      0.435000          0.128125E-03
      0.440000          0.127750E-03
      0.445000          0.127527E-03
      0.450000          0.127419E-03
      0.455000          0.127384E-03
      0.460000          0.127378E-03
      0.465000          0.127357E-03
      0.470000          0.127277E-03
      0.475000          0.127097E-03
      0.480000          0.126784E-03
      0.485000          0.126311E-03
      0.490000          0.125659E-03
      0.495000          0.124821E-03
      0.500000          0.123798E-03
