 I_abs(s)[cm^-1]/c[mg/ml]
       0.00000          0.136666E-01
      0.500000E-02      0.136142E-01
      0.100000E-01      0.134579E-01
      0.150000E-01      0.132014E-01
      0.200000E-01      0.128501E-01
      0.250000E-01      0.124117E-01
      0.300000E-01      0.118955E-01
      0.350000E-01      0.113122E-01
      0.400000E-01      0.106737E-01
      0.450000E-01      0.999272E-02
      0.500000E-01      0.928207E-02
      0.550000E-01      0.855475E-02
      0.600000E-01      0.782333E-02
      0.650000E-01      0.709966E-02
      0.700000E-01      0.639460E-02
      0.750000E-01      0.571776E-02
      0.800000E-01      0.507733E-02
      0.850000E-01      0.447992E-02
      0.900000E-01      0.393053E-02
      0.950000E-01      0.343251E-02
      0.100000          0.298763E-02
      0.105000          0.259615E-02
      0.110000          0.225701E-02
      0.115000          0.196795E-02
      0.120000          0.172572E-02
      0.125000          0.152634E-02
      0.130000          0.136524E-02
      0.135000          0.123755E-02
      0.140000          0.113824E-02
      0.145000          0.106234E-02
      0.150000          0.100509E-02
      0.155000          0.962080E-03
      0.160000          0.929320E-03
      0.165000          0.903344E-03
      0.170000          0.881238E-03
      0.175000          0.860652E-03
      0.180000          0.839794E-03
      0.185000          0.817391E-03
      0.190000          0.792646E-03
      0.195000          0.765175E-03
      0.200000          0.734941E-03
      0.205000          0.702179E-03
      0.210000          0.667326E-03
      0.215000          0.630957E-03
      0.220000          0.593718E-03
      0.225000          0.556276E-03
      0.230000          0.519274E-03
      0.235000          0.483298E-03
      0.240000          0.448851E-03
      0.245000          0.416338E-03
      0.250000          0.386062E-03
      0.255000          0.358221E-03
      0.260000          0.332915E-03
      0.265000          0.310157E-03
      0.270000          0.289887E-03
      0.275000          0.271987E-03
      0.280000          0.256294E-03
      0.285000          0.242616E-03
      0.290000          0.230746E-03
      0.295000          0.220472E-03
      0.300000          0.211588E-03
      0.305000          0.203899E-03
      0.310000          0.197226E-03
      0.315000          0.191410E-03
      0.320000          0.186309E-03
      0.325000          0.181805E-03
      0.330000          0.177793E-03
      0.335000          0.174188E-03
      0.340000          0.170915E-03
      0.345000          0.167911E-03
      0.350000          0.165124E-03
      0.355000          0.162505E-03
      0.360000          0.160015E-03
      0.365000          0.157616E-03
      0.370000          0.155278E-03
      0.375000          0.152974E-03
      0.380000          0.150681E-03
      0.385000          0.148382E-03
      0.390000          0.146064E-03
      0.395000          0.143722E-03
      0.400000          0.141355E-03
      0.405000          0.138967E-03
      0.410000          0.136568E-03
      0.415000          0.134172E-03
      0.420000          0.131795E-03
      0.425000          0.129455E-03
      0.430000          0.127174E-03
      0.435000          0.124968E-03
      0.440000          0.122854E-03
      0.445000          0.120846E-03
      0.450000          0.118953E-03
      0.455000          0.117181E-03
      0.460000          0.115528E-03
      0.465000          0.113990E-03
      0.470000          0.112558E-03
      0.475000          0.111218E-03
      0.480000          0.109954E-03
      0.485000          0.108749E-03
      0.490000          0.107583E-03
      0.495000          0.106439E-03
      0.500000          0.105300E-03
