 I_abs(s)[cm^-1]/c[mg/ml]
       0.00000          0.135974E-01
      0.500000E-02      0.135430E-01
      0.100000E-01      0.133811E-01
      0.150000E-01      0.131154E-01
      0.200000E-01      0.127521E-01
      0.250000E-01      0.122994E-01
      0.300000E-01      0.117675E-01
      0.350000E-01      0.111682E-01
      0.400000E-01      0.105141E-01
      0.450000E-01      0.981892E-02
      0.500000E-01      0.909640E-02
      0.550000E-01      0.836026E-02
      0.600000E-01      0.762366E-02
      0.650000E-01      0.689888E-02
      0.700000E-01      0.619701E-02
      0.750000E-01      0.552764E-02
      0.800000E-01      0.489877E-02
      0.850000E-01      0.431660E-02
      0.900000E-01      0.378557E-02
      0.950000E-01      0.330831E-02
      0.100000          0.288579E-02
      0.105000          0.251742E-02
      0.110000          0.220126E-02
      0.115000          0.193422E-02
      0.120000          0.171231E-02
      0.125000          0.153087E-02
      0.130000          0.138486E-02
      0.135000          0.126902E-02
      0.140000          0.117816E-02
      0.145000          0.110729E-02
      0.150000          0.105180E-02
      0.155000          0.100753E-02
      0.160000          0.970921E-03
      0.165000          0.938979E-03
      0.170000          0.909337E-03
      0.175000          0.880218E-03
      0.180000          0.850390E-03
      0.185000          0.819106E-03
      0.190000          0.786036E-03
      0.195000          0.751178E-03
      0.200000          0.714784E-03
      0.205000          0.677276E-03
      0.210000          0.639178E-03
      0.215000          0.601049E-03
      0.220000          0.563439E-03
      0.225000          0.526843E-03
      0.230000          0.491681E-03
      0.235000          0.458279E-03
      0.240000          0.426866E-03
      0.245000          0.397577E-03
      0.250000          0.370463E-03
      0.255000          0.345508E-03
      0.260000          0.322640E-03
      0.265000          0.301752E-03
      0.270000          0.282718E-03
      0.275000          0.265405E-03
      0.280000          0.249685E-03
      0.285000          0.235441E-03
      0.290000          0.222574E-03
      0.295000          0.211000E-03
      0.300000          0.200652E-03
      0.305000          0.191475E-03
      0.310000          0.183420E-03
      0.315000          0.176442E-03
      0.320000          0.170489E-03
      0.325000          0.165505E-03
      0.330000          0.161421E-03
      0.335000          0.158155E-03
      0.340000          0.155614E-03
      0.345000          0.153692E-03
      0.350000          0.152275E-03
      0.355000          0.151245E-03
      0.360000          0.150482E-03
      0.365000          0.149873E-03
      0.370000          0.149313E-03
      0.375000          0.148711E-03
      0.380000          0.147993E-03
      0.385000          0.147105E-03
      0.390000          0.146013E-03
      0.395000          0.144705E-03
      0.400000          0.143188E-03
      0.405000          0.141486E-03
      0.410000          0.139638E-03
      0.415000          0.137693E-03
      0.420000          0.135706E-03
      0.425000          0.133733E-03
      0.430000          0.131831E-03
      0.435000          0.130047E-03
      0.440000          0.128423E-03
      0.445000          0.126989E-03
      0.450000          0.125762E-03
      0.455000          0.124747E-03
      0.460000          0.123937E-03
      0.465000          0.123313E-03
      0.470000          0.122847E-03
      0.475000          0.122504E-03
      0.480000          0.122245E-03
      0.485000          0.122029E-03
      0.490000          0.121816E-03
      0.495000          0.121569E-03
      0.500000          0.121256E-03
