 I_abs(s)[cm^-1]/c[mg/ml]
       0.00000          0.136128E-01
      0.500000E-02      0.135591E-01
      0.100000E-01      0.133993E-01
      0.150000E-01      0.131371E-01
      0.200000E-01      0.127784E-01
      0.250000E-01      0.123312E-01
      0.300000E-01      0.118055E-01
      0.350000E-01      0.112125E-01
      0.400000E-01      0.105648E-01
      0.450000E-01      0.987549E-02
      0.500000E-01      0.915815E-02
      0.550000E-01      0.842615E-02
      0.600000E-01      0.769242E-02
      0.650000E-01      0.696904E-02
      0.700000E-01      0.626695E-02
      0.750000E-01      0.559571E-02
      0.800000E-01      0.496332E-02
      0.850000E-01      0.437610E-02
      0.900000E-01      0.383862E-02
      0.950000E-01      0.335376E-02
      0.100000          0.292275E-02
      0.105000          0.254531E-02
      0.110000          0.221982E-02
      0.115000          0.194351E-02
      0.120000          0.171272E-02
      0.125000          0.152310E-02
      0.130000          0.136982E-02
      0.135000          0.124787E-02
      0.140000          0.115218E-02
      0.145000          0.107786E-02
      0.150000          0.102030E-02
      0.155000          0.975338E-03
      0.160000          0.939302E-03
      0.165000          0.909074E-03
      0.170000          0.882114E-03
      0.175000          0.856445E-03
      0.180000          0.830626E-03
      0.185000          0.803699E-03
      0.190000          0.775130E-03
      0.195000          0.744734E-03
      0.200000          0.712603E-03
      0.205000          0.679034E-03
      0.210000          0.644457E-03
      0.215000          0.609373E-03
      0.220000          0.574306E-03
      0.225000          0.539754E-03
      0.230000          0.506162E-03
      0.235000          0.473902E-03
      0.240000          0.443255E-03
      0.245000          0.414416E-03
      0.250000          0.387495E-03
      0.255000          0.362523E-03
      0.260000          0.339470E-03
      0.265000          0.318259E-03
      0.270000          0.298776E-03
      0.275000          0.280892E-03
      0.280000          0.264473E-03
      0.285000          0.249389E-03
      0.290000          0.235523E-03
      0.295000          0.222777E-03
      0.300000          0.211076E-03
      0.305000          0.200362E-03
      0.310000          0.190597E-03
      0.315000          0.181759E-03
      0.320000          0.173835E-03
      0.325000          0.166818E-03
      0.330000          0.160700E-03
      0.335000          0.155470E-03
      0.340000          0.151106E-03
      0.345000          0.147578E-03
      0.350000          0.144843E-03
      0.355000          0.142842E-03
      0.360000          0.141507E-03
      0.365000          0.140756E-03
      0.370000          0.140502E-03
      0.375000          0.140651E-03
      0.380000          0.141105E-03
      0.385000          0.141772E-03
      0.390000          0.142560E-03
      0.395000          0.143387E-03
      0.400000          0.144181E-03
      0.405000          0.144879E-03
      0.410000          0.145434E-03
      0.415000          0.145810E-03
      0.420000          0.145985E-03
      0.425000          0.145947E-03
      0.430000          0.145698E-03
      0.435000          0.145245E-03
      0.440000          0.144606E-03
      0.445000          0.143800E-03
      0.450000          0.142852E-03
      0.455000          0.141787E-03
      0.460000          0.140630E-03
      0.465000          0.139401E-03
      0.470000          0.138121E-03
      0.475000          0.136805E-03
      0.480000          0.135464E-03
      0.485000          0.134106E-03
      0.490000          0.132734E-03
      0.495000          0.131349E-03
      0.500000          0.129948E-03
