 I_abs(s)[cm^-1]/c[mg/ml]
       0.00000          0.135284E-01
      0.500000E-02      0.134737E-01
      0.100000E-01      0.133110E-01
      0.150000E-01      0.130442E-01
      0.200000E-01      0.126793E-01
      0.250000E-01      0.122249E-01
      0.300000E-01      0.116911E-01
      0.350000E-01      0.110899E-01
      0.400000E-01      0.104342E-01
      0.450000E-01      0.973772E-02
      0.500000E-01      0.901440E-02
      0.550000E-01      0.827811E-02
      0.600000E-01      0.754215E-02
      0.650000E-01      0.681890E-02
      0.700000E-01      0.611950E-02
      0.750000E-01      0.545360E-02
      0.800000E-01      0.482920E-02
      0.850000E-01      0.425249E-02
      0.900000E-01      0.372783E-02
      0.950000E-01      0.325776E-02
      0.100000          0.284314E-02
      0.105000          0.248323E-02
      0.110000          0.217591E-02
      0.115000          0.191792E-02
      0.120000          0.170507E-02
      0.125000          0.153251E-02
      0.130000          0.139500E-02
      0.135000          0.128711E-02
      0.140000          0.120346E-02
      0.145000          0.113892E-02
      0.150000          0.108873E-02
      0.155000          0.104865E-02
      0.160000          0.101501E-02
      0.165000          0.984806E-03
      0.170000          0.955638E-03
      0.175000          0.925750E-03
      0.180000          0.893963E-03
      0.185000          0.859615E-03
      0.190000          0.822485E-03
      0.195000          0.782713E-03
      0.200000          0.740711E-03
      0.205000          0.697084E-03
      0.210000          0.652546E-03
      0.215000          0.607862E-03
      0.220000          0.563782E-03
      0.225000          0.521001E-03
      0.230000          0.480125E-03
      0.235000          0.441649E-03
      0.240000          0.405949E-03
      0.245000          0.373275E-03
      0.250000          0.343764E-03
      0.255000          0.317445E-03
      0.260000          0.294255E-03
      0.265000          0.274057E-03
      0.270000          0.256655E-03
      0.275000          0.241813E-03
      0.280000          0.229266E-03
      0.285000          0.218738E-03
      0.290000          0.209947E-03
      0.295000          0.202618E-03
      0.300000          0.196490E-03
      0.305000          0.191315E-03
      0.310000          0.186867E-03
      0.315000          0.182942E-03
      0.320000          0.179361E-03
      0.325000          0.175967E-03
      0.330000          0.172629E-03
      0.335000          0.169241E-03
      0.340000          0.165724E-03
      0.345000          0.162023E-03
      0.350000          0.158105E-03
      0.355000          0.153966E-03
      0.360000          0.149618E-03
      0.365000          0.145099E-03
      0.370000          0.140458E-03
      0.375000          0.135764E-03
      0.380000          0.131092E-03
      0.385000          0.126525E-03
      0.390000          0.122146E-03
      0.395000          0.118037E-03
      0.400000          0.114272E-03
      0.405000          0.110914E-03
      0.410000          0.108016E-03
      0.415000          0.105610E-03
      0.420000          0.103716E-03
      0.425000          0.102334E-03
      0.430000          0.101447E-03
      0.435000          0.101025E-03
      0.440000          0.101023E-03
      0.445000          0.101386E-03
      0.450000          0.102053E-03
      0.455000          0.102958E-03
      0.460000          0.104035E-03
      0.465000          0.105220E-03
      0.470000          0.106454E-03
      0.475000          0.107684E-03
      0.480000          0.108867E-03
      0.485000          0.109968E-03
      0.490000          0.110961E-03
      0.495000          0.111827E-03
      0.500000          0.112559E-03
