 I_abs(s)[cm^-1]/c[mg/ml]
       0.00000          0.135054E-01
      0.500000E-02      0.134547E-01
      0.100000E-01      0.133037E-01
      0.150000E-01      0.130557E-01
      0.200000E-01      0.127157E-01
      0.250000E-01      0.122910E-01
      0.300000E-01      0.117902E-01
      0.350000E-01      0.112234E-01
      0.400000E-01      0.106018E-01
      0.450000E-01      0.993730E-02
      0.500000E-01      0.924219E-02
      0.550000E-01      0.852885E-02
      0.600000E-01      0.780939E-02
      0.650000E-01      0.709531E-02
      0.700000E-01      0.639726E-02
      0.750000E-01      0.572477E-02
      0.800000E-01      0.508610E-02
      0.850000E-01      0.448805E-02
      0.900000E-01      0.393593E-02
      0.950000E-01      0.343347E-02
      0.100000          0.298289E-02
      0.105000          0.258496E-02
      0.110000          0.223908E-02
      0.115000          0.194347E-02
      0.120000          0.169533E-02
      0.125000          0.149099E-02
      0.130000          0.132621E-02
      0.135000          0.119626E-02
      0.140000          0.109625E-02
      0.145000          0.102119E-02
      0.150000          0.966250E-03
      0.155000          0.926857E-03
      0.160000          0.898822E-03
      0.165000          0.878424E-03
      0.170000          0.862470E-03
      0.175000          0.848327E-03
      0.180000          0.833925E-03
      0.185000          0.817738E-03
      0.190000          0.798749E-03
      0.195000          0.776395E-03
      0.200000          0.750505E-03
      0.205000          0.721229E-03
      0.210000          0.688966E-03
      0.215000          0.654293E-03
      0.220000          0.617896E-03
      0.225000          0.580512E-03
      0.230000          0.542873E-03
      0.235000          0.505670E-03
      0.240000          0.469512E-03
      0.245000          0.434913E-03
      0.250000          0.402276E-03
      0.255000          0.371887E-03
      0.260000          0.343923E-03
      0.265000          0.318456E-03
      0.270000          0.295474E-03
      0.275000          0.274890E-03
      0.280000          0.256561E-03
      0.285000          0.240310E-03
      0.290000          0.225936E-03
      0.295000          0.213231E-03
      0.300000          0.201994E-03
      0.305000          0.192034E-03
      0.310000          0.183183E-03
      0.315000          0.175296E-03
      0.320000          0.168250E-03
      0.325000          0.161948E-03
      0.330000          0.156311E-03
      0.335000          0.151281E-03
      0.340000          0.146809E-03
      0.345000          0.142857E-03
      0.350000          0.139392E-03
      0.355000          0.136382E-03
      0.360000          0.133792E-03
      0.365000          0.131587E-03
      0.370000          0.129726E-03
      0.375000          0.128163E-03
      0.380000          0.126849E-03
      0.385000          0.125732E-03
      0.390000          0.124762E-03
      0.395000          0.123885E-03
      0.400000          0.123054E-03
      0.405000          0.122223E-03
      0.410000          0.121354E-03
      0.415000          0.120416E-03
      0.420000          0.119384E-03
      0.425000          0.118244E-03
      0.430000          0.116988E-03
      0.435000          0.115616E-03
      0.440000          0.114136E-03
      0.445000          0.112561E-03
      0.450000          0.110909E-03
      0.455000          0.109204E-03
      0.460000          0.107469E-03
      0.465000          0.105730E-03
      0.470000          0.104015E-03
      0.475000          0.102348E-03
      0.480000          0.100754E-03
      0.485000          0.992550E-04
      0.490000          0.978701E-04
      0.495000          0.966158E-04
      0.500000          0.955053E-04
