 I_abs(s)[cm^-1]/c[mg/ml]
       0.00000          0.142949E-01
      0.500000E-02      0.142364E-01
      0.100000E-01      0.140623E-01
      0.150000E-01      0.137770E-01
      0.200000E-01      0.133872E-01
      0.250000E-01      0.129022E-01
      0.300000E-01      0.123332E-01
      0.350000E-01      0.116932E-01
      0.400000E-01      0.109962E-01
      0.450000E-01      0.102569E-01
      0.500000E-01      0.949038E-02
      0.550000E-01      0.871112E-02
      0.600000E-01      0.793307E-02
      0.650000E-01      0.716900E-02
      0.700000E-01      0.643023E-02
      0.750000E-01      0.572640E-02
      0.800000E-01      0.506532E-02
      0.850000E-01      0.445286E-02
      0.900000E-01      0.389300E-02
      0.950000E-01      0.338787E-02
      0.100000          0.293792E-02
      0.105000          0.254212E-02
      0.110000          0.219817E-02
      0.115000          0.190280E-02
      0.120000          0.165197E-02
      0.125000          0.144118E-02
      0.130000          0.126570E-02
      0.135000          0.112079E-02
      0.140000          0.100186E-02
      0.145000          0.904629E-03
      0.150000          0.825229E-03
      0.155000          0.760274E-03
      0.160000          0.706877E-03
      0.165000          0.662656E-03
      0.170000          0.625701E-03
      0.175000          0.594528E-03
      0.180000          0.568015E-03
      0.185000          0.545338E-03
      0.190000          0.525896E-03
      0.195000          0.509253E-03
      0.200000          0.495074E-03
      0.205000          0.483082E-03
      0.210000          0.473017E-03
      0.215000          0.464617E-03
      0.220000          0.457599E-03
      0.225000          0.451658E-03
      0.230000          0.446469E-03
      0.235000          0.441698E-03
      0.240000          0.437013E-03
      0.245000          0.432100E-03
      0.250000          0.426675E-03
      0.255000          0.420495E-03
      0.260000          0.413373E-03
      0.265000          0.405175E-03
      0.270000          0.395830E-03
      0.275000          0.385323E-03
      0.280000          0.373693E-03
      0.285000          0.361030E-03
      0.290000          0.347457E-03
      0.295000          0.333131E-03
      0.300000          0.318229E-03
      0.305000          0.302938E-03
      0.310000          0.287448E-03
      0.315000          0.271946E-03
      0.320000          0.256610E-03
      0.325000          0.241604E-03
      0.330000          0.227074E-03
      0.335000          0.213149E-03
      0.340000          0.199936E-03
      0.345000          0.187524E-03
      0.350000          0.175983E-03
      0.355000          0.165361E-03
      0.360000          0.155693E-03
      0.365000          0.146991E-03
      0.370000          0.139254E-03
      0.375000          0.132467E-03
      0.380000          0.126599E-03
      0.385000          0.121608E-03
      0.390000          0.117439E-03
      0.395000          0.114031E-03
      0.400000          0.111311E-03
      0.405000          0.109205E-03
      0.410000          0.107630E-03
      0.415000          0.106507E-03
      0.420000          0.105753E-03
      0.425000          0.105288E-03
      0.430000          0.105039E-03
      0.435000          0.104934E-03
      0.440000          0.104912E-03
      0.445000          0.104915E-03
      0.450000          0.104898E-03
      0.455000          0.104820E-03
      0.460000          0.104649E-03
      0.465000          0.104363E-03
      0.470000          0.103944E-03
      0.475000          0.103381E-03
      0.480000          0.102669E-03
      0.485000          0.101808E-03
      0.490000          0.100801E-03
      0.495000          0.996562E-04
      0.500000          0.983823E-04
