 I_abs(s)[cm^-1]/c[mg/ml]
       0.00000          0.143736E-01
      0.500000E-02      0.143016E-01
      0.100000E-01      0.140877E-01
      0.150000E-01      0.137378E-01
      0.200000E-01      0.132615E-01
      0.250000E-01      0.126715E-01
      0.300000E-01      0.119836E-01
      0.350000E-01      0.112155E-01
      0.400000E-01      0.103864E-01
      0.450000E-01      0.951630E-02
      0.500000E-01      0.862516E-02
      0.550000E-01      0.773229E-02
      0.600000E-01      0.685568E-02
      0.650000E-01      0.601147E-02
      0.700000E-01      0.521353E-02
      0.750000E-01      0.447311E-02
      0.800000E-01      0.379872E-02
      0.850000E-01      0.319601E-02
      0.900000E-01      0.266790E-02
      0.950000E-01      0.221471E-02
      0.100000          0.183447E-02
      0.105000          0.152322E-02
      0.110000          0.127543E-02
      0.115000          0.108439E-02
      0.120000          0.942638E-03
      0.125000          0.842340E-03
      0.130000          0.775673E-03
      0.135000          0.735123E-03
      0.140000          0.713745E-03
      0.145000          0.705358E-03
      0.150000          0.704673E-03
      0.155000          0.707356E-03
      0.160000          0.710047E-03
      0.165000          0.710317E-03
      0.170000          0.706593E-03
      0.175000          0.698053E-03
      0.180000          0.684502E-03
      0.185000          0.666235E-03
      0.190000          0.643908E-03
      0.195000          0.618404E-03
      0.200000          0.590728E-03
      0.205000          0.561899E-03
      0.210000          0.532878E-03
      0.215000          0.504509E-03
      0.220000          0.477478E-03
      0.225000          0.452293E-03
      0.230000          0.429282E-03
      0.235000          0.408600E-03
      0.240000          0.390246E-03
      0.245000          0.374093E-03
      0.250000          0.359914E-03
      0.255000          0.347415E-03
      0.260000          0.336264E-03
      0.265000          0.326122E-03
      0.270000          0.316662E-03
      0.275000          0.307595E-03
      0.280000          0.298676E-03
      0.285000          0.289720E-03
      0.290000          0.280600E-03
      0.295000          0.271254E-03
      0.300000          0.261673E-03
      0.305000          0.251898E-03
      0.310000          0.242012E-03
      0.315000          0.232126E-03
      0.320000          0.222371E-03
      0.325000          0.212885E-03
      0.330000          0.203803E-03
      0.335000          0.195251E-03
      0.340000          0.187333E-03
      0.345000          0.180132E-03
      0.350000          0.173700E-03
      0.355000          0.168061E-03
      0.360000          0.163210E-03
      0.365000          0.159113E-03
      0.370000          0.155711E-03
      0.375000          0.152924E-03
      0.380000          0.150659E-03
      0.385000          0.148809E-03
      0.390000          0.147265E-03
      0.395000          0.145918E-03
      0.400000          0.144664E-03
      0.405000          0.143409E-03
      0.410000          0.142075E-03
      0.415000          0.140597E-03
      0.420000          0.138928E-03
      0.425000          0.137042E-03
      0.430000          0.134927E-03
      0.435000          0.132590E-03
      0.440000          0.130053E-03
      0.445000          0.127349E-03
      0.450000          0.124519E-03
      0.455000          0.121612E-03
      0.460000          0.118676E-03
      0.465000          0.115762E-03
      0.470000          0.112913E-03
      0.475000          0.110171E-03
      0.480000          0.107564E-03
      0.485000          0.105115E-03
      0.490000          0.102835E-03
      0.495000          0.100727E-03
      0.500000          0.987832E-04
