 I_abs(s)[cm^-1]/c[mg/ml]
       0.00000          0.146748E-01
      0.500000E-02      0.146157E-01
      0.100000E-01      0.144400E-01
      0.150000E-01      0.141521E-01
      0.200000E-01      0.137588E-01
      0.250000E-01      0.132695E-01
      0.300000E-01      0.126958E-01
      0.350000E-01      0.120507E-01
      0.400000E-01      0.113482E-01
      0.450000E-01      0.106032E-01
      0.500000E-01      0.983048E-02
      0.550000E-01      0.904452E-02
      0.600000E-01      0.825893E-02
      0.650000E-01      0.748615E-02
      0.700000E-01      0.673711E-02
      0.750000E-01      0.602106E-02
      0.800000E-01      0.534541E-02
      0.850000E-01      0.471573E-02
      0.900000E-01      0.413576E-02
      0.950000E-01      0.360756E-02
      0.100000          0.313165E-02
      0.105000          0.270725E-02
      0.110000          0.233247E-02
      0.115000          0.200461E-02
      0.120000          0.172035E-02
      0.125000          0.147601E-02
      0.130000          0.126773E-02
      0.135000          0.109163E-02
      0.140000          0.943985E-03
      0.145000          0.821252E-03
      0.150000          0.720189E-03
      0.155000          0.637864E-03
      0.160000          0.571662E-03
      0.165000          0.519273E-03
      0.170000          0.478666E-03
      0.175000          0.448052E-03
      0.180000          0.425848E-03
      0.185000          0.410643E-03
      0.190000          0.401164E-03
      0.195000          0.396251E-03
      0.200000          0.394844E-03
      0.205000          0.395970E-03
      0.210000          0.398741E-03
      0.215000          0.402354E-03
      0.220000          0.406097E-03
      0.225000          0.409353E-03
      0.230000          0.411608E-03
      0.235000          0.412452E-03
      0.240000          0.411586E-03
      0.245000          0.408812E-03
      0.250000          0.404037E-03
      0.255000          0.397257E-03
      0.260000          0.388553E-03
      0.265000          0.378074E-03
      0.270000          0.366023E-03
      0.275000          0.352647E-03
      0.280000          0.338218E-03
      0.285000          0.323022E-03
      0.290000          0.307346E-03
      0.295000          0.291469E-03
      0.300000          0.275655E-03
      0.305000          0.260143E-03
      0.310000          0.245143E-03
      0.315000          0.230835E-03
      0.320000          0.217366E-03
      0.325000          0.204847E-03
      0.330000          0.193360E-03
      0.335000          0.182951E-03
      0.340000          0.173637E-03
      0.345000          0.165410E-03
      0.350000          0.158235E-03
      0.355000          0.152058E-03
      0.360000          0.146807E-03
      0.365000          0.142397E-03
      0.370000          0.138734E-03
      0.375000          0.135717E-03
      0.380000          0.133246E-03
      0.385000          0.131219E-03
      0.390000          0.129543E-03
      0.395000          0.128129E-03
      0.400000          0.126897E-03
      0.405000          0.125779E-03
      0.410000          0.124718E-03
      0.415000          0.123668E-03
      0.420000          0.122592E-03
      0.425000          0.121466E-03
      0.430000          0.120272E-03
      0.435000          0.119000E-03
      0.440000          0.117646E-03
      0.445000          0.116211E-03
      0.450000          0.114698E-03
      0.455000          0.113111E-03
      0.460000          0.111456E-03
      0.465000          0.109738E-03
      0.470000          0.107965E-03
      0.475000          0.106142E-03
      0.480000          0.104274E-03
      0.485000          0.102367E-03
      0.490000          0.100429E-03
      0.495000          0.984679E-04
      0.500000          0.964915E-04
