 I_abs(s)[cm^-1]/c[mg/ml]
       0.00000          0.135041E-01
      0.500000E-02      0.133967E-01
      0.100000E-01      0.130794E-01
      0.150000E-01      0.125663E-01
      0.200000E-01      0.118796E-01
      0.250000E-01      0.110487E-01
      0.300000E-01      0.101080E-01
      0.350000E-01      0.909481E-02
      0.400000E-01      0.804711E-02
      0.450000E-01      0.700158E-02
      0.500000E-01      0.599157E-02
      0.550000E-01      0.504550E-02
      0.600000E-01      0.418578E-02
      0.650000E-01      0.342814E-02
      0.700000E-01      0.278148E-02
      0.750000E-01      0.224821E-02
      0.800000E-01      0.182494E-02
      0.850000E-01      0.150352E-02
      0.900000E-01      0.127225E-02
      0.950000E-01      0.111712E-02
      0.100000          0.102309E-02
      0.105000          0.975228E-03
      0.110000          0.959589E-03
      0.115000          0.963950E-03
      0.120000          0.978226E-03
      0.125000          0.994661E-03
      0.130000          0.100780E-02
      0.135000          0.101428E-02
      0.140000          0.101251E-02
      0.145000          0.100229E-02
      0.150000          0.984338E-03
      0.155000          0.959991E-03
      0.160000          0.930800E-03
      0.165000          0.898304E-03
      0.170000          0.863843E-03
      0.175000          0.828466E-03
      0.180000          0.792901E-03
      0.185000          0.757574E-03
      0.190000          0.722676E-03
      0.195000          0.688229E-03
      0.200000          0.654175E-03
      0.205000          0.620436E-03
      0.210000          0.586972E-03
      0.215000          0.553815E-03
      0.220000          0.521078E-03
      0.225000          0.488960E-03
      0.230000          0.457723E-03
      0.235000          0.427676E-03
      0.240000          0.399144E-03
      0.245000          0.372445E-03
      0.250000          0.347867E-03
      0.255000          0.325649E-03
      0.260000          0.305966E-03
      0.265000          0.288922E-03
      0.270000          0.274543E-03
      0.275000          0.262778E-03
      0.280000          0.253500E-03
      0.285000          0.246513E-03
      0.290000          0.241558E-03
      0.295000          0.238327E-03
      0.300000          0.236476E-03
      0.305000          0.235639E-03
      0.310000          0.235450E-03
      0.315000          0.235557E-03
      0.320000          0.235641E-03
      0.325000          0.235432E-03
      0.330000          0.234719E-03
      0.335000          0.233355E-03
      0.340000          0.231267E-03
      0.345000          0.228442E-03
      0.350000          0.224927E-03
      0.355000          0.220817E-03
      0.360000          0.216236E-03
      0.365000          0.211325E-03
      0.370000          0.206229E-03
      0.375000          0.201083E-03
      0.380000          0.196001E-03
      0.385000          0.191073E-03
      0.390000          0.186361E-03
      0.395000          0.181900E-03
      0.400000          0.177704E-03
      0.405000          0.173767E-03
      0.410000          0.170073E-03
      0.415000          0.166599E-03
      0.420000          0.163320E-03
      0.425000          0.160209E-03
      0.430000          0.157244E-03
      0.435000          0.154401E-03
      0.440000          0.151659E-03
      0.445000          0.148992E-03
      0.450000          0.146375E-03
      0.455000          0.143777E-03
      0.460000          0.141166E-03
      0.465000          0.138512E-03
      0.470000          0.135784E-03
      0.475000          0.132961E-03
      0.480000          0.130031E-03
      0.485000          0.126993E-03
      0.490000          0.123864E-03
      0.495000          0.120675E-03
      0.500000          0.117470E-03
