 I_abs(s)[cm^-1]/c[mg/ml]
       0.00000          0.140677E-01
      0.500000E-02      0.139900E-01
      0.100000E-01      0.137594E-01
      0.150000E-01      0.133838E-01
      0.200000E-01      0.128758E-01
      0.250000E-01      0.122523E-01
      0.300000E-01      0.115331E-01
      0.350000E-01      0.107407E-01
      0.400000E-01      0.989838E-02
      0.450000E-01      0.902971E-02
      0.500000E-01      0.815721E-02
      0.550000E-01      0.730154E-02
      0.600000E-01      0.648066E-02
      0.650000E-01      0.570936E-02
      0.700000E-01      0.499883E-02
      0.750000E-01      0.435662E-02
      0.800000E-01      0.378666E-02
      0.850000E-01      0.328961E-02
      0.900000E-01      0.286328E-02
      0.950000E-01      0.250311E-02
      0.100000          0.220287E-02
      0.105000          0.195518E-02
      0.110000          0.175218E-02
      0.115000          0.158599E-02
      0.120000          0.144918E-02
      0.125000          0.133511E-02
      0.130000          0.123808E-02
      0.135000          0.115354E-02
      0.140000          0.107797E-02
      0.145000          0.100893E-02
      0.150000          0.944828E-03
      0.155000          0.884785E-03
      0.160000          0.828443E-03
      0.165000          0.775772E-03
      0.170000          0.726900E-03
      0.175000          0.681983E-03
      0.180000          0.641098E-03
      0.185000          0.604191E-03
      0.190000          0.571047E-03
      0.195000          0.541303E-03
      0.200000          0.514480E-03
      0.205000          0.490028E-03
      0.210000          0.467381E-03
      0.215000          0.446008E-03
      0.220000          0.425455E-03
      0.225000          0.405380E-03
      0.230000          0.385568E-03
      0.235000          0.365932E-03
      0.240000          0.346505E-03
      0.245000          0.327418E-03
      0.250000          0.308874E-03
      0.255000          0.291111E-03
      0.260000          0.274378E-03
      0.265000          0.258903E-03
      0.270000          0.244872E-03
      0.275000          0.232416E-03
      0.280000          0.221597E-03
      0.285000          0.212416E-03
      0.290000          0.204808E-03
      0.295000          0.198658E-03
      0.300000          0.193812E-03
      0.305000          0.190090E-03
      0.310000          0.187298E-03
      0.315000          0.185242E-03
      0.320000          0.183739E-03
      0.325000          0.182620E-03
      0.330000          0.181741E-03
      0.335000          0.180978E-03
      0.340000          0.180233E-03
      0.345000          0.179431E-03
      0.350000          0.178515E-03
      0.355000          0.177446E-03
      0.360000          0.176198E-03
      0.365000          0.174756E-03
      0.370000          0.173114E-03
      0.375000          0.171271E-03
      0.380000          0.169234E-03
      0.385000          0.167010E-03
      0.390000          0.164612E-03
      0.395000          0.162057E-03
      0.400000          0.159361E-03
      0.405000          0.156546E-03
      0.410000          0.153632E-03
      0.415000          0.150642E-03
      0.420000          0.147599E-03
      0.425000          0.144524E-03
      0.430000          0.141439E-03
      0.435000          0.138362E-03
      0.440000          0.135310E-03
      0.445000          0.132298E-03
      0.450000          0.129335E-03
      0.455000          0.126431E-03
      0.460000          0.123592E-03
      0.465000          0.120821E-03
      0.470000          0.118120E-03
      0.475000          0.115490E-03
      0.480000          0.112929E-03
      0.485000          0.110437E-03
      0.490000          0.108011E-03
      0.495000          0.105651E-03
      0.500000          0.103355E-03
