 I_abs(s)[cm^-1]/c[mg/ml]
       0.00000          0.142870E-01
      0.500000E-02      0.142208E-01
      0.100000E-01      0.140242E-01
      0.150000E-01      0.137031E-01
      0.200000E-01      0.132670E-01
      0.250000E-01      0.127286E-01
      0.300000E-01      0.121032E-01
      0.350000E-01      0.114079E-01
      0.400000E-01      0.106610E-01
      0.450000E-01      0.988117E-02
      0.500000E-01      0.908658E-02
      0.550000E-01      0.829433E-02
      0.600000E-01      0.751983E-02
      0.650000E-01      0.677628E-02
      0.700000E-01      0.607440E-02
      0.750000E-01      0.542221E-02
      0.800000E-01      0.482499E-02
      0.850000E-01      0.428547E-02
      0.900000E-01      0.380396E-02
      0.950000E-01      0.337875E-02
      0.100000          0.300649E-02
      0.105000          0.268261E-02
      0.110000          0.240175E-02
      0.115000          0.215822E-02
      0.120000          0.194630E-02
      0.125000          0.176065E-02
      0.130000          0.159646E-02
      0.135000          0.144967E-02
      0.140000          0.131700E-02
      0.145000          0.119600E-02
      0.150000          0.108501E-02
      0.155000          0.983009E-03
      0.160000          0.889508E-03
      0.165000          0.804411E-03
      0.170000          0.727847E-03
      0.175000          0.660027E-03
      0.180000          0.601122E-03
      0.185000          0.551165E-03
      0.190000          0.509984E-03
      0.195000          0.477172E-03
      0.200000          0.452078E-03
      0.205000          0.433833E-03
      0.210000          0.421394E-03
      0.215000          0.413597E-03
      0.220000          0.409229E-03
      0.225000          0.407085E-03
      0.230000          0.406038E-03
      0.235000          0.405082E-03
      0.240000          0.403379E-03
      0.245000          0.400278E-03
      0.250000          0.395329E-03
      0.255000          0.388280E-03
      0.260000          0.379062E-03
      0.265000          0.367762E-03
      0.270000          0.354598E-03
      0.275000          0.339881E-03
      0.280000          0.323980E-03
      0.285000          0.307296E-03
      0.290000          0.290223E-03
      0.295000          0.273134E-03
      0.300000          0.256358E-03
      0.305000          0.240169E-03
      0.310000          0.224782E-03
      0.315000          0.210354E-03
      0.320000          0.196983E-03
      0.325000          0.184722E-03
      0.330000          0.173579E-03
      0.335000          0.163536E-03
      0.340000          0.154552E-03
      0.345000          0.146571E-03
      0.350000          0.139535E-03
      0.355000          0.133383E-03
      0.360000          0.128057E-03
      0.365000          0.123503E-03
      0.370000          0.119671E-03
      0.375000          0.116512E-03
      0.380000          0.113982E-03
      0.385000          0.112033E-03
      0.390000          0.110613E-03
      0.395000          0.109669E-03
      0.400000          0.109138E-03
      0.405000          0.108954E-03
      0.410000          0.109045E-03
      0.415000          0.109334E-03
      0.420000          0.109744E-03
      0.425000          0.110197E-03
      0.430000          0.110617E-03
      0.435000          0.110935E-03
      0.440000          0.111092E-03
      0.445000          0.111034E-03
      0.450000          0.110725E-03
      0.455000          0.110138E-03
      0.460000          0.109260E-03
      0.465000          0.108094E-03
      0.470000          0.106652E-03
      0.475000          0.104961E-03
      0.480000          0.103056E-03
      0.485000          0.100979E-03
      0.490000          0.987775E-04
      0.495000          0.965040E-04
      0.500000          0.942099E-04
