 I_abs(s)[cm^-1]/c[mg/ml]
       0.00000          0.142791E-01
      0.500000E-02      0.141983E-01
      0.100000E-01      0.139586E-01
      0.150000E-01      0.135688E-01
      0.200000E-01      0.130426E-01
      0.250000E-01      0.123981E-01
      0.300000E-01      0.116570E-01
      0.350000E-01      0.108431E-01
      0.400000E-01      0.998131E-02
      0.450000E-01      0.909626E-02
      0.500000E-01      0.821126E-02
      0.550000E-01      0.734728E-02
      0.600000E-01      0.652219E-02
      0.650000E-01      0.575023E-02
      0.700000E-01      0.504176E-02
      0.750000E-01      0.440321E-02
      0.800000E-01      0.383734E-02
      0.850000E-01      0.334364E-02
      0.900000E-01      0.291885E-02
      0.950000E-01      0.255765E-02
      0.100000          0.225327E-02
      0.105000          0.199820E-02
      0.110000          0.178470E-02
      0.115000          0.160536E-02
      0.120000          0.145342E-02
      0.125000          0.132307E-02
      0.130000          0.120952E-02
      0.135000          0.110907E-02
      0.140000          0.101904E-02
      0.145000          0.937615E-03
      0.150000          0.863696E-03
      0.155000          0.796705E-03
      0.160000          0.736408E-03
      0.165000          0.682744E-03
      0.170000          0.635694E-03
      0.175000          0.595185E-03
      0.180000          0.561020E-03
      0.185000          0.532856E-03
      0.190000          0.510198E-03
      0.195000          0.492418E-03
      0.200000          0.478792E-03
      0.205000          0.468536E-03
      0.210000          0.460846E-03
      0.215000          0.454940E-03
      0.220000          0.450086E-03
      0.225000          0.445627E-03
      0.230000          0.440996E-03
      0.235000          0.435730E-03
      0.240000          0.429470E-03
      0.245000          0.421960E-03
      0.250000          0.413047E-03
      0.255000          0.402670E-03
      0.260000          0.390852E-03
      0.265000          0.377692E-03
      0.270000          0.363353E-03
      0.275000          0.348046E-03
      0.280000          0.332020E-03
      0.285000          0.315549E-03
      0.290000          0.298912E-03
      0.295000          0.282387E-03
      0.300000          0.266229E-03
      0.305000          0.250668E-03
      0.310000          0.235892E-03
      0.315000          0.222047E-03
      0.320000          0.209230E-03
      0.325000          0.197490E-03
      0.330000          0.186832E-03
      0.335000          0.177220E-03
      0.340000          0.168586E-03
      0.345000          0.160837E-03
      0.350000          0.153865E-03
      0.355000          0.147558E-03
      0.360000          0.141803E-03
      0.365000          0.136499E-03
      0.370000          0.131558E-03
      0.375000          0.126912E-03
      0.380000          0.122514E-03
      0.385000          0.118339E-03
      0.390000          0.114381E-03
      0.395000          0.110653E-03
      0.400000          0.107184E-03
      0.405000          0.104013E-03
      0.410000          0.101183E-03
      0.415000          0.987407E-04
      0.420000          0.967275E-04
      0.425000          0.951773E-04
      0.430000          0.941120E-04
      0.435000          0.935385E-04
      0.440000          0.934466E-04
      0.445000          0.938081E-04
      0.450000          0.945771E-04
      0.455000          0.956907E-04
      0.460000          0.970721E-04
      0.465000          0.986332E-04
      0.470000          0.100279E-03
      0.475000          0.101912E-03
      0.480000          0.103438E-03
      0.485000          0.104767E-03
      0.490000          0.105824E-03
      0.495000          0.106546E-03
      0.500000          0.106890E-03
