 I_abs(s)[cm^-1]/c[mg/ml]
       0.00000          0.146111E-01
      0.500000E-02      0.145528E-01
      0.100000E-01      0.143794E-01
      0.150000E-01      0.140949E-01
      0.200000E-01      0.137060E-01
      0.250000E-01      0.132216E-01
      0.300000E-01      0.126527E-01
      0.350000E-01      0.120117E-01
      0.400000E-01      0.113125E-01
      0.450000E-01      0.105693E-01
      0.500000E-01      0.979679E-02
      0.550000E-01      0.900929E-02
      0.600000E-01      0.822052E-02
      0.650000E-01      0.744315E-02
      0.700000E-01      0.668850E-02
      0.750000E-01      0.596634E-02
      0.800000E-01      0.528468E-02
      0.850000E-01      0.464972E-02
      0.900000E-01      0.406584E-02
      0.950000E-01      0.353564E-02
      0.100000          0.306012E-02
      0.105000          0.263878E-02
      0.110000          0.226990E-02
      0.115000          0.195071E-02
      0.120000          0.167767E-02
      0.125000          0.144669E-02
      0.130000          0.125336E-02
      0.135000          0.109315E-02
      0.140000          0.961584E-03
      0.145000          0.854379E-03
      0.150000          0.767557E-03
      0.155000          0.697520E-03
      0.160000          0.641089E-03
      0.165000          0.595524E-03
      0.170000          0.558512E-03
      0.175000          0.528146E-03
      0.180000          0.502883E-03
      0.185000          0.481499E-03
      0.190000          0.463038E-03
      0.195000          0.446767E-03
      0.200000          0.432124E-03
      0.205000          0.418683E-03
      0.210000          0.406119E-03
      0.215000          0.394180E-03
      0.220000          0.382667E-03
      0.225000          0.371424E-03
      0.230000          0.360324E-03
      0.235000          0.349269E-03
      0.240000          0.338186E-03
      0.245000          0.327025E-03
      0.250000          0.315760E-03
      0.255000          0.304389E-03
      0.260000          0.292933E-03
      0.265000          0.281432E-03
      0.270000          0.269945E-03
      0.275000          0.258542E-03
      0.280000          0.247303E-03
      0.285000          0.236315E-03
      0.290000          0.225660E-03
      0.295000          0.215420E-03
      0.300000          0.205667E-03
      0.305000          0.196463E-03
      0.310000          0.187858E-03
      0.315000          0.179891E-03
      0.320000          0.172584E-03
      0.325000          0.165950E-03
      0.330000          0.159989E-03
      0.335000          0.154692E-03
      0.340000          0.150040E-03
      0.345000          0.146010E-03
      0.350000          0.142571E-03
      0.355000          0.139689E-03
      0.360000          0.137327E-03
      0.365000          0.135445E-03
      0.370000          0.134001E-03
      0.375000          0.132952E-03
      0.380000          0.132253E-03
      0.385000          0.131858E-03
      0.390000          0.131719E-03
      0.395000          0.131788E-03
      0.400000          0.132015E-03
      0.405000          0.132351E-03
      0.410000          0.132746E-03
      0.415000          0.133151E-03
      0.420000          0.133518E-03
      0.425000          0.133802E-03
      0.430000          0.133962E-03
      0.435000          0.133959E-03
      0.440000          0.133761E-03
      0.445000          0.133341E-03
      0.450000          0.132680E-03
      0.455000          0.131765E-03
      0.460000          0.130589E-03
      0.465000          0.129156E-03
      0.470000          0.127477E-03
      0.475000          0.125568E-03
      0.480000          0.123454E-03
      0.485000          0.121167E-03
      0.490000          0.118742E-03
      0.495000          0.116220E-03
      0.500000          0.113642E-03
