 I_abs(s)[cm^-1]/c[mg/ml]
       0.00000          0.139044E-01
      0.500000E-02      0.138389E-01
      0.100000E-01      0.136442E-01
      0.150000E-01      0.133251E-01
      0.200000E-01      0.128896E-01
      0.250000E-01      0.123486E-01
      0.300000E-01      0.117150E-01
      0.350000E-01      0.110042E-01
      0.400000E-01      0.102327E-01
      0.450000E-01      0.941769E-02
      0.500000E-01      0.857704E-02
      0.550000E-01      0.772809E-02
      0.600000E-01      0.688742E-02
      0.650000E-01      0.607033E-02
      0.700000E-01      0.529041E-02
      0.750000E-01      0.455922E-02
      0.800000E-01      0.388607E-02
      0.850000E-01      0.327787E-02
      0.900000E-01      0.273911E-02
      0.950000E-01      0.227190E-02
      0.100000          0.187609E-02
      0.105000          0.154954E-02
      0.110000          0.128834E-02
      0.115000          0.108714E-02
      0.120000          0.939513E-03
      0.125000          0.838270E-03
      0.130000          0.775824E-03
      0.135000          0.744515E-03
      0.140000          0.736893E-03
      0.145000          0.745974E-03
      0.150000          0.765438E-03
      0.155000          0.789777E-03
      0.160000          0.814391E-03
      0.165000          0.835633E-03
      0.170000          0.850803E-03
      0.175000          0.858108E-03
      0.180000          0.856582E-03
      0.185000          0.845981E-03
      0.190000          0.826666E-03
      0.195000          0.799470E-03
      0.200000          0.765568E-03
      0.205000          0.726355E-03
      0.210000          0.683325E-03
      0.215000          0.637979E-03
      0.220000          0.591739E-03
      0.225000          0.545885E-03
      0.230000          0.501516E-03
      0.235000          0.459522E-03
      0.240000          0.420574E-03
      0.245000          0.385136E-03
      0.250000          0.353473E-03
      0.255000          0.325678E-03
      0.260000          0.301701E-03
      0.265000          0.281382E-03
      0.270000          0.264474E-03
      0.275000          0.250678E-03
      0.280000          0.239662E-03
      0.285000          0.231085E-03
      0.290000          0.224610E-03
      0.295000          0.219913E-03
      0.300000          0.216692E-03
      0.305000          0.214668E-03
      0.310000          0.213586E-03
      0.315000          0.213214E-03
      0.320000          0.213338E-03
      0.325000          0.213763E-03
      0.330000          0.214308E-03
      0.335000          0.214809E-03
      0.340000          0.215113E-03
      0.345000          0.215084E-03
      0.350000          0.214606E-03
      0.355000          0.213578E-03
      0.360000          0.211927E-03
      0.365000          0.209601E-03
      0.370000          0.206581E-03
      0.375000          0.202871E-03
      0.380000          0.198509E-03
      0.385000          0.193557E-03
      0.390000          0.188103E-03
      0.395000          0.182254E-03
      0.400000          0.176133E-03
      0.405000          0.169871E-03
      0.410000          0.163603E-03
      0.415000          0.157456E-03
      0.420000          0.151549E-03
      0.425000          0.145983E-03
      0.430000          0.140836E-03
      0.435000          0.136164E-03
      0.440000          0.131995E-03
      0.445000          0.128329E-03
      0.450000          0.125144E-03
      0.455000          0.122392E-03
      0.460000          0.120007E-03
      0.465000          0.117911E-03
      0.470000          0.116017E-03
      0.475000          0.114234E-03
      0.480000          0.112477E-03
      0.485000          0.110667E-03
      0.490000          0.108741E-03
      0.495000          0.106651E-03
      0.500000          0.104367E-03
