 I_abs(s)[cm^-1]/c[mg/ml]
       0.00000          0.143499E-01
      0.500000E-02      0.142712E-01
      0.100000E-01      0.140376E-01
      0.150000E-01      0.136576E-01
      0.200000E-01      0.131445E-01
      0.250000E-01      0.125158E-01
      0.300000E-01      0.117923E-01
      0.350000E-01      0.109968E-01
      0.400000E-01      0.101530E-01
      0.450000E-01      0.928444E-02
      0.500000E-01      0.841306E-02
      0.550000E-01      0.755869E-02
      0.600000E-01      0.673822E-02
      0.650000E-01      0.596518E-02
      0.700000E-01      0.524956E-02
      0.750000E-01      0.459790E-02
      0.800000E-01      0.401349E-02
      0.850000E-01      0.349680E-02
      0.900000E-01      0.304598E-02
      0.950000E-01      0.265737E-02
      0.100000          0.232606E-02
      0.105000          0.204640E-02
      0.110000          0.181238E-02
      0.115000          0.161798E-02
      0.120000          0.145744E-02
      0.125000          0.132542E-02
      0.130000          0.121704E-02
      0.135000          0.112795E-02
      0.140000          0.105435E-02
      0.145000          0.992891E-03
      0.150000          0.940722E-03
      0.155000          0.895401E-03
      0.160000          0.854898E-03
      0.165000          0.817567E-03
      0.170000          0.782129E-03
      0.175000          0.747657E-03
      0.180000          0.713555E-03
      0.185000          0.679520E-03
      0.190000          0.645510E-03
      0.195000          0.611681E-03
      0.200000          0.578337E-03
      0.205000          0.545862E-03
      0.210000          0.514661E-03
      0.215000          0.485107E-03
      0.220000          0.457497E-03
      0.225000          0.432029E-03
      0.230000          0.408786E-03
      0.235000          0.387739E-03
      0.240000          0.368763E-03
      0.245000          0.351659E-03
      0.250000          0.336185E-03
      0.255000          0.322078E-03
      0.260000          0.309084E-03
      0.265000          0.296976E-03
      0.270000          0.285563E-03
      0.275000          0.274701E-03
      0.280000          0.264286E-03
      0.285000          0.254251E-03
      0.290000          0.244561E-03
      0.295000          0.235199E-03
      0.300000          0.226164E-03
      0.305000          0.217462E-03
      0.310000          0.209104E-03
      0.315000          0.201108E-03
      0.320000          0.193495E-03
      0.325000          0.186291E-03
      0.330000          0.179528E-03
      0.335000          0.173240E-03
      0.340000          0.167464E-03
      0.345000          0.162229E-03
      0.350000          0.157557E-03
      0.355000          0.153453E-03
      0.360000          0.149903E-03
      0.365000          0.146871E-03
      0.370000          0.144296E-03
      0.375000          0.142098E-03
      0.380000          0.140185E-03
      0.385000          0.138454E-03
      0.390000          0.136806E-03
      0.395000          0.135152E-03
      0.400000          0.133419E-03
      0.405000          0.131560E-03
      0.410000          0.129553E-03
      0.415000          0.127402E-03
      0.420000          0.125133E-03
      0.425000          0.122791E-03
      0.430000          0.120428E-03
      0.435000          0.118100E-03
      0.440000          0.115858E-03
      0.445000          0.113740E-03
      0.450000          0.111772E-03
      0.455000          0.109960E-03
      0.460000          0.108296E-03
      0.465000          0.106758E-03
      0.470000          0.105317E-03
      0.475000          0.103940E-03
      0.480000          0.102595E-03
      0.485000          0.101256E-03
      0.490000          0.999068E-04
      0.495000          0.985417E-04
      0.500000          0.971650E-04
