 I_abs(s)[cm^-1]/c[mg/ml]
       0.00000          0.140521E-01
      0.500000E-02      0.139635E-01
      0.100000E-01      0.137014E-01
      0.150000E-01      0.132767E-01
      0.200000E-01      0.127067E-01
      0.250000E-01      0.120142E-01
      0.300000E-01      0.112255E-01
      0.350000E-01      0.103689E-01
      0.400000E-01      0.947334E-02
      0.450000E-01      0.856616E-02
      0.500000E-01      0.767218E-02
      0.550000E-01      0.681247E-02
      0.600000E-01      0.600368E-02
      0.650000E-01      0.525776E-02
      0.700000E-01      0.458204E-02
      0.750000E-01      0.397969E-02
      0.800000E-01      0.345025E-02
      0.850000E-01      0.299052E-02
      0.900000E-01      0.259531E-02
      0.950000E-01      0.225825E-02
      0.100000          0.197249E-02
      0.105000          0.173125E-02
      0.110000          0.152819E-02
      0.115000          0.135762E-02
      0.120000          0.121463E-02
      0.125000          0.109501E-02
      0.130000          0.995202E-03
      0.135000          0.912161E-03
      0.140000          0.843230E-03
      0.145000          0.786053E-03
      0.150000          0.738502E-03
      0.155000          0.698657E-03
      0.160000          0.664809E-03
      0.165000          0.635483E-03
      0.170000          0.609463E-03
      0.175000          0.585819E-03
      0.180000          0.563902E-03
      0.185000          0.543328E-03
      0.190000          0.523934E-03
      0.195000          0.505721E-03
      0.200000          0.488784E-03
      0.205000          0.473243E-03
      0.210000          0.459184E-03
      0.215000          0.446614E-03
      0.220000          0.435440E-03
      0.225000          0.425465E-03
      0.230000          0.416402E-03
      0.235000          0.407911E-03
      0.240000          0.399632E-03
      0.245000          0.391223E-03
      0.250000          0.382401E-03
      0.255000          0.372962E-03
      0.260000          0.362796E-03
      0.265000          0.351888E-03
      0.270000          0.340309E-03
      0.275000          0.328196E-03
      0.280000          0.315732E-03
      0.285000          0.303122E-03
      0.290000          0.290570E-03
      0.295000          0.278265E-03
      0.300000          0.266364E-03
      0.305000          0.254994E-03
      0.310000          0.244246E-03
      0.315000          0.234179E-03
      0.320000          0.224824E-03
      0.325000          0.216194E-03
      0.330000          0.208286E-03
      0.335000          0.201085E-03
      0.340000          0.194569E-03
      0.345000          0.188709E-03
      0.350000          0.183472E-03
      0.355000          0.178818E-03
      0.360000          0.174699E-03
      0.365000          0.171065E-03
      0.370000          0.167861E-03
      0.375000          0.165029E-03
      0.380000          0.162510E-03
      0.385000          0.160248E-03
      0.390000          0.158185E-03
      0.395000          0.156271E-03
      0.400000          0.154457E-03
      0.405000          0.152698E-03
      0.410000          0.150951E-03
      0.415000          0.149176E-03
      0.420000          0.147335E-03
      0.425000          0.145394E-03
      0.430000          0.143320E-03
      0.435000          0.141089E-03
      0.440000          0.138681E-03
      0.445000          0.136088E-03
      0.450000          0.133312E-03
      0.455000          0.130367E-03
      0.460000          0.127277E-03
      0.465000          0.124079E-03
      0.470000          0.120815E-03
      0.475000          0.117531E-03
      0.480000          0.114272E-03
      0.485000          0.111080E-03
      0.490000          0.107990E-03
      0.495000          0.105026E-03
      0.500000          0.102202E-03
