 I_abs(s)[cm^-1]/c[mg/ml]
       0.00000          0.142791E-01
      0.500000E-02      0.142101E-01
      0.100000E-01      0.140053E-01
      0.150000E-01      0.136717E-01
      0.200000E-01      0.132205E-01
      0.250000E-01      0.126662E-01
      0.300000E-01      0.120262E-01
      0.350000E-01      0.113195E-01
      0.400000E-01      0.105658E-01
      0.450000E-01      0.978456E-02
      0.500000E-01      0.899418E-02
      0.550000E-01      0.821110E-02
      0.600000E-01      0.744946E-02
      0.650000E-01      0.672066E-02
      0.700000E-01      0.603335E-02
      0.750000E-01      0.539342E-02
      0.800000E-01      0.480430E-02
      0.850000E-01      0.426723E-02
      0.900000E-01      0.378173E-02
      0.950000E-01      0.334599E-02
      0.100000          0.295730E-02
      0.105000          0.261238E-02
      0.110000          0.230771E-02
      0.115000          0.203971E-02
      0.120000          0.180492E-02
      0.125000          0.160004E-02
      0.130000          0.142200E-02
      0.135000          0.126792E-02
      0.140000          0.113510E-02
      0.145000          0.102103E-02
      0.150000          0.923324E-03
      0.155000          0.839756E-03
      0.160000          0.768252E-03
      0.165000          0.706917E-03
      0.170000          0.654057E-03
      0.175000          0.608201E-03
      0.180000          0.568118E-03
      0.185000          0.532815E-03
      0.190000          0.501528E-03
      0.195000          0.473694E-03
      0.200000          0.448916E-03
      0.205000          0.426918E-03
      0.210000          0.407497E-03
      0.215000          0.390486E-03
      0.220000          0.375715E-03
      0.225000          0.362991E-03
      0.230000          0.352083E-03
      0.235000          0.342726E-03
      0.240000          0.334626E-03
      0.245000          0.327479E-03
      0.250000          0.320987E-03
      0.255000          0.314880E-03
      0.260000          0.308930E-03
      0.265000          0.302959E-03
      0.270000          0.296848E-03
      0.275000          0.290528E-03
      0.280000          0.283981E-03
      0.285000          0.277223E-03
      0.290000          0.270296E-03
      0.295000          0.263253E-03
      0.300000          0.256153E-03
      0.305000          0.249045E-03
      0.310000          0.241974E-03
      0.315000          0.234969E-03
      0.320000          0.228052E-03
      0.325000          0.221234E-03
      0.330000          0.214522E-03
      0.335000          0.207919E-03
      0.340000          0.201428E-03
      0.345000          0.195054E-03
      0.350000          0.188800E-03
      0.355000          0.182673E-03
      0.360000          0.176678E-03
      0.365000          0.170818E-03
      0.370000          0.165099E-03
      0.375000          0.159522E-03
      0.380000          0.154092E-03
      0.385000          0.148813E-03
      0.390000          0.143693E-03
      0.395000          0.138744E-03
      0.400000          0.133985E-03
      0.405000          0.129435E-03
      0.410000          0.125121E-03
      0.415000          0.121070E-03
      0.420000          0.117306E-03
      0.425000          0.113851E-03
      0.430000          0.110719E-03
      0.435000          0.107914E-03
      0.440000          0.105429E-03
      0.445000          0.103245E-03
      0.450000          0.101334E-03
      0.455000          0.996595E-04
      0.460000          0.981791E-04
      0.465000          0.968494E-04
      0.470000          0.956289E-04
      0.475000          0.944810E-04
      0.480000          0.933767E-04
      0.485000          0.922955E-04
      0.490000          0.912257E-04
      0.495000          0.901634E-04
      0.500000          0.891101E-04
