 I_abs(s)[cm^-1]/c[mg/ml]
       0.00000          0.129520E-01
      0.500000E-02      0.128160E-01
      0.100000E-01      0.124179E-01
      0.150000E-01      0.117863E-01
      0.200000E-01      0.109654E-01
      0.250000E-01      0.100093E-01
      0.300000E-01      0.897711E-02
      0.350000E-01      0.792620E-02
      0.400000E-01      0.690725E-02
      0.450000E-01      0.596033E-02
      0.500000E-01      0.511267E-02
      0.550000E-01      0.437836E-02
      0.600000E-01      0.375963E-02
      0.650000E-01      0.324933E-02
      0.700000E-01      0.283403E-02
      0.750000E-01      0.249729E-02
      0.800000E-01      0.222240E-02
      0.850000E-01      0.199455E-02
      0.900000E-01      0.180197E-02
      0.950000E-01      0.163628E-02
      0.100000          0.149221E-02
      0.105000          0.136677E-02
      0.110000          0.125835E-02
      0.115000          0.116590E-02
      0.120000          0.108823E-02
      0.125000          0.102376E-02
      0.130000          0.970371E-03
      0.135000          0.925666E-03
      0.140000          0.887170E-03
      0.145000          0.852648E-03
      0.150000          0.820319E-03
      0.155000          0.788980E-03
      0.160000          0.758015E-03
      0.165000          0.727314E-03
      0.170000          0.697143E-03
      0.175000          0.667981E-03
      0.180000          0.640382E-03
      0.185000          0.614853E-03
      0.190000          0.591772E-03
      0.195000          0.571333E-03
      0.200000          0.553526E-03
      0.205000          0.538139E-03
      0.210000          0.524773E-03
      0.215000          0.512889E-03
      0.220000          0.501865E-03
      0.225000          0.491069E-03
      0.230000          0.479937E-03
      0.235000          0.468043E-03
      0.240000          0.455156E-03
      0.245000          0.441259E-03
      0.250000          0.426538E-03
      0.255000          0.411335E-03
      0.260000          0.396080E-03
      0.265000          0.381206E-03
      0.270000          0.367072E-03
      0.275000          0.353913E-03
      0.280000          0.341810E-03
      0.285000          0.330703E-03
      0.290000          0.320422E-03
      0.295000          0.310744E-03
      0.300000          0.301447E-03
      0.305000          0.292354E-03
      0.310000          0.283367E-03
      0.315000          0.274469E-03
      0.320000          0.265712E-03
      0.325000          0.257196E-03
      0.330000          0.249036E-03
      0.335000          0.241334E-03
      0.340000          0.234168E-03
      0.345000          0.227576E-03
      0.350000          0.221563E-03
      0.355000          0.216104E-03
      0.360000          0.211153E-03
      0.365000          0.206644E-03
      0.370000          0.202499E-03
      0.375000          0.198622E-03
      0.380000          0.194899E-03
      0.385000          0.191204E-03
      0.390000          0.187405E-03
      0.395000          0.183373E-03
      0.400000          0.179005E-03
      0.405000          0.174234E-03
      0.410000          0.169044E-03
      0.415000          0.163480E-03
      0.420000          0.157635E-03
      0.425000          0.151648E-03
      0.430000          0.145680E-03
      0.435000          0.139893E-03
      0.440000          0.134432E-03
      0.445000          0.129409E-03
      0.450000          0.124894E-03
      0.455000          0.120914E-03
      0.460000          0.117456E-03
      0.465000          0.114480E-03
      0.470000          0.111920E-03
      0.475000          0.109699E-03
      0.480000          0.107731E-03
      0.485000          0.105927E-03
      0.490000          0.104194E-03
      0.495000          0.102444E-03
      0.500000          0.100593E-03
