 I_abs(s)[cm^-1]/c[mg/ml]
       0.00000          0.137189E-01
      0.500000E-02      0.136387E-01
      0.100000E-01      0.134008E-01
      0.150000E-01      0.130133E-01
      0.200000E-01      0.124892E-01
      0.250000E-01      0.118456E-01
      0.300000E-01      0.111031E-01
      0.350000E-01      0.102848E-01
      0.400000E-01      0.941493E-02
      0.450000E-01      0.851796E-02
      0.500000E-01      0.761748E-02
      0.550000E-01      0.673527E-02
      0.600000E-01      0.589046E-02
      0.650000E-01      0.509899E-02
      0.700000E-01      0.437318E-02
      0.750000E-01      0.372157E-02
      0.800000E-01      0.314900E-02
      0.850000E-01      0.265679E-02
      0.900000E-01      0.224316E-02
      0.950000E-01      0.190376E-02
      0.100000          0.163219E-02
      0.105000          0.142068E-02
      0.110000          0.126059E-02
      0.115000          0.114305E-02
      0.120000          0.105938E-02
      0.125000          0.100148E-02
      0.130000          0.962111E-03
      0.135000          0.935069E-03
      0.140000          0.915273E-03
      0.145000          0.898762E-03
      0.150000          0.882629E-03
      0.155000          0.864909E-03
      0.160000          0.844435E-03
      0.165000          0.820688E-03
      0.170000          0.793637E-03
      0.175000          0.763604E-03
      0.180000          0.731137E-03
      0.185000          0.696912E-03
      0.190000          0.661654E-03
      0.195000          0.626084E-03
      0.200000          0.590880E-03
      0.205000          0.556649E-03
      0.210000          0.523917E-03
      0.215000          0.493123E-03
      0.220000          0.464607E-03
      0.225000          0.438617E-03
      0.230000          0.415303E-03
      0.235000          0.394720E-03
      0.240000          0.376832E-03
      0.245000          0.361514E-03
      0.250000          0.348567E-03
      0.255000          0.337722E-03
      0.260000          0.328665E-03
      0.265000          0.321045E-03
      0.270000          0.314504E-03
      0.275000          0.308688E-03
      0.280000          0.303269E-03
      0.285000          0.297959E-03
      0.290000          0.292523E-03
      0.295000          0.286785E-03
      0.300000          0.280629E-03
      0.305000          0.273996E-03
      0.310000          0.266879E-03
      0.315000          0.259317E-03
      0.320000          0.251376E-03
      0.325000          0.243147E-03
      0.330000          0.234734E-03
      0.335000          0.226243E-03
      0.340000          0.217781E-03
      0.345000          0.209448E-03
      0.350000          0.201339E-03
      0.355000          0.193544E-03
      0.360000          0.186144E-03
      0.365000          0.179220E-03
      0.370000          0.172845E-03
      0.375000          0.167087E-03
      0.380000          0.162007E-03
      0.385000          0.157653E-03
      0.390000          0.154058E-03
      0.395000          0.151230E-03
      0.400000          0.149155E-03
      0.405000          0.147785E-03
      0.410000          0.147044E-03
      0.415000          0.146823E-03
      0.420000          0.146987E-03
      0.425000          0.147379E-03
      0.430000          0.147829E-03
      0.435000          0.148165E-03
      0.440000          0.148224E-03
      0.445000          0.147860E-03
      0.450000          0.146960E-03
      0.455000          0.145446E-03
      0.460000          0.143285E-03
      0.465000          0.140488E-03
      0.470000          0.137109E-03
      0.475000          0.133243E-03
      0.480000          0.129015E-03
      0.485000          0.124572E-03
      0.490000          0.120071E-03
      0.495000          0.115666E-03
      0.500000          0.111500E-03
