 I_abs(s)[cm^-1]/c[mg/ml]
       0.00000          0.143894E-01
      0.500000E-02      0.143100E-01
      0.100000E-01      0.140744E-01
      0.150000E-01      0.136900E-01
      0.200000E-01      0.131690E-01
      0.250000E-01      0.125275E-01
      0.300000E-01      0.117847E-01
      0.350000E-01      0.109623E-01
      0.400000E-01      0.100834E-01
      0.450000E-01      0.917125E-02
      0.500000E-01      0.824868E-02
      0.550000E-01      0.733697E-02
      0.600000E-01      0.645517E-02
      0.650000E-01      0.561955E-02
      0.700000E-01      0.484318E-02
      0.750000E-01      0.413572E-02
      0.800000E-01      0.350343E-02
      0.850000E-01      0.294927E-02
      0.900000E-01      0.247323E-02
      0.950000E-01      0.207271E-02
      0.100000          0.174300E-02
      0.105000          0.147778E-02
      0.110000          0.126962E-02
      0.115000          0.111052E-02
      0.120000          0.992308E-03
      0.125000          0.907032E-03
      0.130000          0.847269E-03
      0.135000          0.806344E-03
      0.140000          0.778473E-03
      0.145000          0.758845E-03
      0.150000          0.743626E-03
      0.155000          0.729927E-03
      0.160000          0.715720E-03
      0.165000          0.699739E-03
      0.170000          0.681355E-03
      0.175000          0.660446E-03
      0.180000          0.637274E-03
      0.185000          0.612361E-03
      0.190000          0.586380E-03
      0.195000          0.560063E-03
      0.200000          0.534120E-03
      0.205000          0.509176E-03
      0.210000          0.485734E-03
      0.215000          0.464143E-03
      0.220000          0.444587E-03
      0.225000          0.427092E-03
      0.230000          0.411540E-03
      0.235000          0.397694E-03
      0.240000          0.385232E-03
      0.245000          0.373782E-03
      0.250000          0.362962E-03
      0.255000          0.352414E-03
      0.260000          0.341835E-03
      0.265000          0.331003E-03
      0.270000          0.319787E-03
      0.275000          0.308159E-03
      0.280000          0.296188E-03
      0.285000          0.284026E-03
      0.290000          0.271892E-03
      0.295000          0.260046E-03
      0.300000          0.248761E-03
      0.305000          0.238301E-03
      0.310000          0.228889E-03
      0.315000          0.220694E-03
      0.320000          0.213811E-03
      0.325000          0.208255E-03
      0.330000          0.203963E-03
      0.335000          0.200797E-03
      0.340000          0.198558E-03
      0.345000          0.197003E-03
      0.350000          0.195864E-03
      0.355000          0.194868E-03
      0.360000          0.193758E-03
      0.365000          0.192309E-03
      0.370000          0.190343E-03
      0.375000          0.187739E-03
      0.380000          0.184437E-03
      0.385000          0.180437E-03
      0.390000          0.175794E-03
      0.395000          0.170614E-03
      0.400000          0.165038E-03
      0.405000          0.159232E-03
      0.410000          0.153374E-03
      0.415000          0.147638E-03
      0.420000          0.142188E-03
      0.425000          0.137162E-03
      0.430000          0.132670E-03
      0.435000          0.128786E-03
      0.440000          0.125549E-03
      0.445000          0.122962E-03
      0.450000          0.120994E-03
      0.455000          0.119588E-03
      0.460000          0.118663E-03
      0.465000          0.118123E-03
      0.470000          0.117867E-03
      0.475000          0.117789E-03
      0.480000          0.117789E-03
      0.485000          0.117777E-03
      0.490000          0.117677E-03
      0.495000          0.117431E-03
      0.500000          0.116998E-03
