 I_abs(s)[cm^-1]/c[mg/ml]
       0.00000          0.141772E-01
      0.500000E-02      0.141171E-01
      0.100000E-01      0.139384E-01
      0.150000E-01      0.136453E-01
      0.200000E-01      0.132451E-01
      0.250000E-01      0.127471E-01
      0.300000E-01      0.121631E-01
      0.350000E-01      0.115064E-01
      0.400000E-01      0.107916E-01
      0.450000E-01      0.100339E-01
      0.500000E-01      0.924884E-02
      0.550000E-01      0.845168E-02
      0.600000E-01      0.765690E-02
      0.650000E-01      0.687786E-02
      0.700000E-01      0.612648E-02
      0.750000E-01      0.541291E-02
      0.800000E-01      0.474545E-02
      0.850000E-01      0.413036E-02
      0.900000E-01      0.357194E-02
      0.950000E-01      0.307255E-02
      0.100000          0.263274E-02
      0.105000          0.225148E-02
      0.110000          0.192633E-02
      0.115000          0.165375E-02
      0.120000          0.142932E-02
      0.125000          0.124804E-02
      0.130000          0.110456E-02
      0.135000          0.993413E-03
      0.140000          0.909231E-03
      0.145000          0.846896E-03
      0.150000          0.801676E-03
      0.155000          0.769316E-03
      0.160000          0.746101E-03
      0.165000          0.728875E-03
      0.170000          0.715048E-03
      0.175000          0.702566E-03
      0.180000          0.689877E-03
      0.185000          0.675875E-03
      0.190000          0.659845E-03
      0.195000          0.641397E-03
      0.200000          0.620411E-03
      0.205000          0.596977E-03
      0.210000          0.571343E-03
      0.215000          0.543871E-03
      0.220000          0.514996E-03
      0.225000          0.485192E-03
      0.230000          0.454949E-03
      0.235000          0.424748E-03
      0.240000          0.395046E-03
      0.245000          0.366260E-03
      0.250000          0.338760E-03
      0.255000          0.312864E-03
      0.260000          0.288825E-03
      0.265000          0.266838E-03
      0.270000          0.247033E-03
      0.275000          0.229479E-03
      0.280000          0.214185E-03
      0.285000          0.201106E-03
      0.290000          0.190149E-03
      0.295000          0.181179E-03
      0.300000          0.174025E-03
      0.305000          0.168494E-03
      0.310000          0.164375E-03
      0.315000          0.161448E-03
      0.320000          0.159491E-03
      0.325000          0.158292E-03
      0.330000          0.157646E-03
      0.335000          0.157367E-03
      0.340000          0.157289E-03
      0.345000          0.157264E-03
      0.350000          0.157169E-03
      0.355000          0.156901E-03
      0.360000          0.156378E-03
      0.365000          0.155538E-03
      0.370000          0.154336E-03
      0.375000          0.152744E-03
      0.380000          0.150750E-03
      0.385000          0.148353E-03
      0.390000          0.145566E-03
      0.395000          0.142411E-03
      0.400000          0.138924E-03
      0.405000          0.135148E-03
      0.410000          0.131135E-03
      0.415000          0.126946E-03
      0.420000          0.122647E-03
      0.425000          0.118307E-03
      0.430000          0.114000E-03
      0.435000          0.109798E-03
      0.440000          0.105772E-03
      0.445000          0.101988E-03
      0.450000          0.985026E-04
      0.455000          0.953646E-04
      0.460000          0.926108E-04
      0.465000          0.902651E-04
      0.470000          0.883380E-04
      0.475000          0.868266E-04
      0.480000          0.857150E-04
      0.485000          0.849755E-04
      0.490000          0.845706E-04
      0.495000          0.844551E-04
      0.500000          0.845782E-04
