 I_abs(s)[cm^-1]/c[mg/ml]
       0.00000          0.135653E-01
      0.500000E-02      0.134519E-01
      0.100000E-01      0.131166E-01
      0.150000E-01      0.125743E-01
      0.200000E-01      0.118488E-01
      0.250000E-01      0.109712E-01
      0.300000E-01      0.997831E-02
      0.350000E-01      0.891037E-02
      0.400000E-01      0.780872E-02
      0.450000E-01      0.671355E-02
      0.500000E-01      0.566179E-02
      0.550000E-01      0.468531E-02
      0.600000E-01      0.380949E-02
      0.650000E-01      0.305235E-02
      0.700000E-01      0.242412E-02
      0.750000E-01      0.192737E-02
      0.800000E-01      0.155766E-02
      0.850000E-01      0.130448E-02
      0.900000E-01      0.115258E-02
      0.950000E-01      0.108345E-02
      0.100000          0.107691E-02
      0.105000          0.111255E-02
      0.110000          0.117113E-02
      0.115000          0.123568E-02
      0.120000          0.129231E-02
      0.125000          0.133076E-02
      0.130000          0.134451E-02
      0.135000          0.133070E-02
      0.140000          0.128974E-02
      0.145000          0.122472E-02
      0.150000          0.114070E-02
      0.155000          0.104399E-02
      0.160000          0.941332E-03
      0.165000          0.839273E-03
      0.170000          0.743580E-03
      0.175000          0.658833E-03
      0.180000          0.588173E-03
      0.185000          0.533211E-03
      0.190000          0.494092E-03
      0.195000          0.469674E-03
      0.200000          0.457801E-03
      0.205000          0.455626E-03
      0.210000          0.459955E-03
      0.215000          0.467574E-03
      0.220000          0.475530E-03
      0.225000          0.481358E-03
      0.230000          0.483224E-03
      0.235000          0.480001E-03
      0.240000          0.471258E-03
      0.245000          0.457203E-03
      0.250000          0.438566E-03
      0.255000          0.416450E-03
      0.260000          0.392180E-03
      0.265000          0.367138E-03
      0.270000          0.342630E-03
      0.275000          0.319769E-03
      0.280000          0.299399E-03
      0.285000          0.282051E-03
      0.290000          0.267936E-03
      0.295000          0.256971E-03
      0.300000          0.248824E-03
      0.305000          0.242981E-03
      0.310000          0.238819E-03
      0.315000          0.235679E-03
      0.320000          0.232932E-03
      0.325000          0.230033E-03
      0.330000          0.226564E-03
      0.335000          0.222251E-03
      0.340000          0.216972E-03
      0.345000          0.210748E-03
      0.350000          0.203719E-03
      0.355000          0.196116E-03
      0.360000          0.188223E-03
      0.365000          0.180349E-03
      0.370000          0.172787E-03
      0.375000          0.165793E-03
      0.380000          0.159564E-03
      0.385000          0.154228E-03
      0.390000          0.149837E-03
      0.395000          0.146373E-03
      0.400000          0.143760E-03
      0.405000          0.141870E-03
      0.410000          0.140547E-03
      0.415000          0.139622E-03
      0.420000          0.138926E-03
      0.425000          0.138306E-03
      0.430000          0.137634E-03
      0.435000          0.136815E-03
      0.440000          0.135789E-03
      0.445000          0.134529E-03
      0.450000          0.133038E-03
      0.455000          0.131346E-03
      0.460000          0.129497E-03
      0.465000          0.127547E-03
      0.470000          0.125551E-03
      0.475000          0.123563E-03
      0.480000          0.121626E-03
      0.485000          0.119770E-03
      0.490000          0.118012E-03
      0.495000          0.116355E-03
      0.500000          0.114790E-03
