 I_abs(s)[cm^-1]/c[mg/ml]
       0.00000          0.142870E-01
      0.500000E-02      0.142254E-01
      0.100000E-01      0.140424E-01
      0.150000E-01      0.137425E-01
      0.200000E-01      0.133334E-01
      0.250000E-01      0.128254E-01
      0.300000E-01      0.122308E-01
      0.350000E-01      0.115639E-01
      0.400000E-01      0.108400E-01
      0.450000E-01      0.100753E-01
      0.500000E-01      0.928581E-02
      0.550000E-01      0.848729E-02
      0.600000E-01      0.769447E-02
      0.650000E-01      0.692072E-02
      0.700000E-01      0.617770E-02
      0.750000E-01      0.547511E-02
      0.800000E-01      0.482053E-02
      0.850000E-01      0.421939E-02
      0.900000E-01      0.367499E-02
      0.950000E-01      0.318864E-02
      0.100000          0.275986E-02
      0.105000          0.238663E-02
      0.110000          0.206567E-02
      0.115000          0.179276E-02
      0.120000          0.156305E-02
      0.125000          0.137133E-02
      0.130000          0.121233E-02
      0.135000          0.108096E-02
      0.140000          0.972445E-03
      0.145000          0.882497E-03
      0.150000          0.807402E-03
      0.155000          0.744051E-03
      0.160000          0.689945E-03
      0.165000          0.643157E-03
      0.170000          0.602274E-03
      0.175000          0.566312E-03
      0.180000          0.534626E-03
      0.185000          0.506821E-03
      0.190000          0.482658E-03
      0.195000          0.461981E-03
      0.200000          0.444648E-03
      0.205000          0.430487E-03
      0.210000          0.419261E-03
      0.215000          0.410656E-03
      0.220000          0.404276E-03
      0.225000          0.399659E-03
      0.230000          0.396295E-03
      0.235000          0.393653E-03
      0.240000          0.391210E-03
      0.245000          0.388475E-03
      0.250000          0.385022E-03
      0.255000          0.380503E-03
      0.260000          0.374663E-03
      0.265000          0.367353E-03
      0.270000          0.358522E-03
      0.275000          0.348221E-03
      0.280000          0.336582E-03
      0.285000          0.323810E-03
      0.290000          0.310165E-03
      0.295000          0.295939E-03
      0.300000          0.281440E-03
      0.305000          0.266970E-03
      0.310000          0.252817E-03
      0.315000          0.239232E-03
      0.320000          0.226428E-03
      0.325000          0.214565E-03
      0.330000          0.203755E-03
      0.335000          0.194057E-03
      0.340000          0.185480E-03
      0.345000          0.177990E-03
      0.350000          0.171516E-03
      0.355000          0.165956E-03
      0.360000          0.161188E-03
      0.365000          0.157077E-03
      0.370000          0.153483E-03
      0.375000          0.150267E-03
      0.380000          0.147302E-03
      0.385000          0.144472E-03
      0.390000          0.141680E-03
      0.395000          0.138848E-03
      0.400000          0.135919E-03
      0.405000          0.132860E-03
      0.410000          0.129655E-03
      0.415000          0.126306E-03
      0.420000          0.122834E-03
      0.425000          0.119269E-03
      0.430000          0.115652E-03
      0.435000          0.112030E-03
      0.440000          0.108452E-03
      0.445000          0.104968E-03
      0.450000          0.101622E-03
      0.455000          0.984569E-04
      0.460000          0.955057E-04
      0.465000          0.927949E-04
      0.470000          0.903425E-04
      0.475000          0.881583E-04
      0.480000          0.862444E-04
      0.485000          0.845961E-04
      0.490000          0.832033E-04
      0.495000          0.820513E-04
      0.500000          0.811232E-04
