 I_abs(s)[cm^-1]/c[mg/ml]
       0.00000          0.139976E-01
      0.500000E-02      0.139404E-01
      0.100000E-01      0.137702E-01
      0.150000E-01      0.134910E-01
      0.200000E-01      0.131093E-01
      0.250000E-01      0.126341E-01
      0.300000E-01      0.120763E-01
      0.350000E-01      0.114483E-01
      0.400000E-01      0.107638E-01
      0.450000E-01      0.100372E-01
      0.500000E-01      0.928307E-02
      0.550000E-01      0.851598E-02
      0.600000E-01      0.774973E-02
      0.650000E-01      0.699716E-02
      0.700000E-01      0.626978E-02
      0.750000E-01      0.557749E-02
      0.800000E-01      0.492842E-02
      0.850000E-01      0.432883E-02
      0.900000E-01      0.378304E-02
      0.950000E-01      0.329351E-02
      0.100000          0.286092E-02
      0.105000          0.248436E-02
      0.110000          0.216152E-02
      0.115000          0.188895E-02
      0.120000          0.166229E-02
      0.125000          0.147654E-02
      0.130000          0.132637E-02
      0.135000          0.120627E-02
      0.140000          0.111086E-02
      0.145000          0.103501E-02
      0.150000          0.974028E-03
      0.155000          0.923747E-03
      0.160000          0.880612E-03
      0.165000          0.841709E-03
      0.170000          0.804774E-03
      0.175000          0.768157E-03
      0.180000          0.730782E-03
      0.185000          0.692073E-03
      0.190000          0.651877E-03
      0.195000          0.610379E-03
      0.200000          0.568012E-03
      0.205000          0.525375E-03
      0.210000          0.483158E-03
      0.215000          0.442072E-03
      0.220000          0.402791E-03
      0.225000          0.365915E-03
      0.230000          0.331932E-03
      0.235000          0.301201E-03
      0.240000          0.273943E-03
      0.245000          0.250245E-03
      0.250000          0.230062E-03
      0.255000          0.213240E-03
      0.260000          0.199528E-03
      0.265000          0.188606E-03
      0.270000          0.180102E-03
      0.275000          0.173617E-03
      0.280000          0.168748E-03
      0.285000          0.165104E-03
      0.290000          0.162322E-03
      0.295000          0.160082E-03
      0.300000          0.158111E-03
      0.305000          0.156194E-03
      0.310000          0.154174E-03
      0.315000          0.151949E-03
      0.320000          0.149471E-03
      0.325000          0.146739E-03
      0.330000          0.143793E-03
      0.335000          0.140702E-03
      0.340000          0.137557E-03
      0.345000          0.134462E-03
      0.350000          0.131524E-03
      0.355000          0.128845E-03
      0.360000          0.126511E-03
      0.365000          0.124595E-03
      0.370000          0.123143E-03
      0.375000          0.122179E-03
      0.380000          0.121700E-03
      0.385000          0.121679E-03
      0.390000          0.122064E-03
      0.395000          0.122787E-03
      0.400000          0.123765E-03
      0.405000          0.124905E-03
      0.410000          0.126109E-03
      0.415000          0.127282E-03
      0.420000          0.128335E-03
      0.425000          0.129189E-03
      0.430000          0.129779E-03
      0.435000          0.130059E-03
      0.440000          0.129998E-03
      0.445000          0.129586E-03
      0.450000          0.128829E-03
      0.455000          0.127750E-03
      0.460000          0.126387E-03
      0.465000          0.124788E-03
      0.470000          0.123007E-03
      0.475000          0.121105E-03
      0.480000          0.119141E-03
      0.485000          0.117173E-03
      0.490000          0.115251E-03
      0.495000          0.113421E-03
      0.500000          0.111717E-03
