 I_abs(s)[cm^-1]/c[mg/ml]
       0.00000          0.143263E-01
      0.500000E-02      0.142685E-01
      0.100000E-01      0.140963E-01
      0.150000E-01      0.138137E-01
      0.200000E-01      0.134268E-01
      0.250000E-01      0.129442E-01
      0.300000E-01      0.123763E-01
      0.350000E-01      0.117352E-01
      0.400000E-01      0.110340E-01
      0.450000E-01      0.102870E-01
      0.500000E-01      0.950851E-02
      0.550000E-01      0.871296E-02
      0.600000E-01      0.791435E-02
      0.650000E-01      0.712581E-02
      0.700000E-01      0.635937E-02
      0.750000E-01      0.562562E-02
      0.800000E-01      0.493353E-02
      0.850000E-01      0.429031E-02
      0.900000E-01      0.370135E-02
      0.950000E-01      0.317018E-02
      0.100000          0.269856E-02
      0.105000          0.228660E-02
      0.110000          0.193290E-02
      0.115000          0.163475E-02
      0.120000          0.138838E-02
      0.125000          0.118920E-02
      0.130000          0.103201E-02
      0.135000          0.911294E-03
      0.140000          0.821413E-03
      0.145000          0.756814E-03
      0.150000          0.712210E-03
      0.155000          0.682721E-03
      0.160000          0.663983E-03
      0.165000          0.652219E-03
      0.170000          0.644279E-03
      0.175000          0.637653E-03
      0.180000          0.630445E-03
      0.185000          0.621334E-03
      0.190000          0.609517E-03
      0.195000          0.594632E-03
      0.200000          0.576681E-03
      0.205000          0.555950E-03
      0.210000          0.532924E-03
      0.215000          0.508213E-03
      0.220000          0.482490E-03
      0.225000          0.456427E-03
      0.230000          0.430654E-03
      0.235000          0.405723E-03
      0.240000          0.382085E-03
      0.245000          0.360080E-03
      0.250000          0.339930E-03
      0.255000          0.321750E-03
      0.260000          0.305550E-03
      0.265000          0.291258E-03
      0.270000          0.278735E-03
      0.275000          0.267792E-03
      0.280000          0.258209E-03
      0.285000          0.249753E-03
      0.290000          0.242194E-03
      0.295000          0.235313E-03
      0.300000          0.228918E-03
      0.305000          0.222843E-03
      0.310000          0.216958E-03
      0.315000          0.211165E-03
      0.320000          0.205401E-03
      0.325000          0.199634E-03
      0.330000          0.193856E-03
      0.335000          0.188084E-03
      0.340000          0.182350E-03
      0.345000          0.176698E-03
      0.350000          0.171178E-03
      0.355000          0.165843E-03
      0.360000          0.160745E-03
      0.365000          0.155928E-03
      0.370000          0.151433E-03
      0.375000          0.147290E-03
      0.380000          0.143520E-03
      0.385000          0.140133E-03
      0.390000          0.137129E-03
      0.395000          0.134499E-03
      0.400000          0.132223E-03
      0.405000          0.130276E-03
      0.410000          0.128626E-03
      0.415000          0.127233E-03
      0.420000          0.126056E-03
      0.425000          0.125050E-03
      0.430000          0.124170E-03
      0.435000          0.123371E-03
      0.440000          0.122609E-03
      0.445000          0.121843E-03
      0.450000          0.121038E-03
      0.455000          0.120160E-03
      0.460000          0.119183E-03
      0.465000          0.118087E-03
      0.470000          0.116857E-03
      0.475000          0.115485E-03
      0.480000          0.113971E-03
      0.485000          0.112318E-03
      0.490000          0.110538E-03
      0.495000          0.108645E-03
      0.500000          0.106660E-03
